sitting_id,trial,duration,start_time,type,capacity,samediff,response,correct,rt,state
1156210,1,730,"2015-09-04 14:29:15",practice,1,same,l,1,578.89,keyup
1156210,2,730,"2015-09-04 14:29:15",practice,2,different,a,1,1189.03,keyup
1156210,3,730,"2015-09-04 14:29:15",practice,2,same,l,1,636.07,keyup
1156210,4,730,"2015-09-04 14:29:15",practice,2,same,l,1,702.26,keyup
1156210,5,730,"2015-09-04 14:29:15",practice,2,different,a,1,3001.49,keyup
1156210,6,730,"2015-09-04 14:29:15",practice,2,different,l,0,723.45,keyup
1156210,7,730,"2015-09-04 14:29:15",practice,2,different,a,1,191.10,keyup
1156210,8,730,"2015-09-04 14:29:15",practice,3,same,l,1,520.45,keyup
1156210,9,730,"2015-09-04 14:29:15",practice,3,different,a,1,316.53,keyup
1156210,10,730,"2015-09-04 14:29:15",test,3,different,a,1,354.17,keyup
1156210,11,730,"2015-09-04 14:29:15",test,4,same,l,1,601.91,keyup
1156210,12,730,"2015-09-04 14:29:15",test,5,same,l,1,6925.61,keyup
1156210,13,730,"2015-09-04 14:29:15",test,6,different,l,0,937.51,keyup
1156210,14,730,"2015-09-04 14:29:15",test,5,same,l,1,858.60,keyup
1156210,15,730,"2015-09-04 14:29:15",test,5,different,l,0,789.60,keyup
1156210,16,730,"2015-09-04 14:29:15",test,4,same,a,0,986.29,keyup
1156210,17,730,"2015-09-04 14:29:15",test,3,same,a,0,742.13,keyup
1156210,18,730,"2015-09-04 14:29:15",test,2,same,a,0,2667.57,keyup
1156210,19,730,"2015-09-04 14:29:15",test,1,same,l,1,718.00,keyup
1156210,20,730,"2015-09-04 14:29:15",test,1,same,l,1,487.71,keyup
1156210,21,730,"2015-09-04 14:29:15",test,2,different,a,1,760.33,keyup
1156210,22,730,"2015-09-04 14:29:15",test,3,same,l,1,1140.58,keyup
1156210,23,730,"2015-09-04 14:29:15",test,4,different,a,1,636.44,keyup
1156210,24,730,"2015-09-04 14:29:15",test,5,different,l,0,563.22,keyup
1156210,25,730,"2015-09-04 14:29:15",test,4,same,a,0,3770.95,keyup
1156210,26,730,"2015-09-04 14:29:15",test,3,different,l,0,633.11,keyup
1156210,27,730,"2015-09-04 14:29:15",test,2,same,a,0,327.03,keyup
1156210,28,730,"2015-09-04 14:29:15",test,1,different,l,0,940.41,keyup
1156210,29,730,"2015-09-04 14:29:15",test,1,different,a,1,901.32,keyup
1156210,30,730,"2015-09-04 14:29:15",test,1,different,a,1,1327.86,keyup
1156210,31,730,"2015-09-04 14:29:15",test,2,same,l,1,805.86,keyup
1156210,32,730,"2015-09-04 14:29:15",test,3,different,l,0,406.30,keyup
1156210,33,730,"2015-09-04 14:29:15",test,2,different,a,1,639.16,keyup
1156279,1,497,"2015-09-04 15:23:23",practice,1,same,a,0,1156.89,keyup
1156279,2,497,"2015-09-04 15:23:23",practice,1,same,s,0,602.45,keyup
1156279,3,497,"2015-09-04 15:23:23",practice,1,same,l,1,448.64,keyup
1156279,4,497,"2015-09-04 15:23:23",practice,2,different,a,1,499.52,keyup
1156279,5,497,"2015-09-04 15:23:23",practice,2,same,a,0,1578.93,keyup
1156279,6,497,"2015-09-04 15:23:23",practice,2,same,l,1,431.79,keyup
1156279,7,497,"2015-09-04 15:23:23",practice,2,same,l,1,376.26,keyup
1156279,8,497,"2015-09-04 15:23:23",practice,2,different,a,1,417.24,keyup
1156279,9,497,"2015-09-04 15:23:23",practice,2,different,a,1,1120.86,keyup
1156279,10,497,"2015-09-04 15:23:23",practice,3,same,l,1,1190.13,keyup
1156279,11,497,"2015-09-04 15:23:23",practice,3,different,a,1,463.74,keyup
1156279,12,497,"2015-09-04 15:23:23",test,3,different,a,1,357.18,keyup
1156279,13,497,"2015-09-04 15:23:23",test,4,same,l,1,387.42,keyup
1156279,14,497,"2015-09-04 15:23:23",test,5,same,l,1,1087.62,keyup
1156279,15,497,"2015-09-04 15:23:23",test,6,different,l,0,2193.15,keyup
1156279,16,497,"2015-09-04 15:23:23",test,5,same,d,0,4411.01,keyup
1156279,17,497,"2015-09-04 15:23:23",test,4,different,OSleft,0,3355.35,keyup
1156279,18,497,"2015-09-04 15:23:23",test,3,same,s,0,18790.77,keyup
1156279,19,497,"2015-09-04 15:23:23",test,2,same,d,0,24867.98,keyup
1156279,20,497,"2015-09-04 15:23:23",test,1,same,s,0,45103.10,keyup
1156279,21,497,"2015-09-04 15:23:23",test,1,same,s,0,2239.27,keyup
1156279,22,497,"2015-09-04 15:23:23",test,1,same,s,0,17678.43,keyup
1156279,23,497,"2015-09-04 15:23:23",test,1,different,d,0,306.54,keyup
1156279,24,497,"2015-09-04 15:23:23",test,1,same,s,0,331.43,keyup
1156279,25,497,"2015-09-04 15:23:23",test,1,different,s,0,378.49,keyup
1156279,26,497,"2015-09-04 15:23:23",test,1,different,space,0,380.08,keyup
1156279,27,497,"2015-09-04 15:23:23",test,1,same,s,0,651.12,keyup
1156279,28,497,"2015-09-04 15:23:23",test,1,different,space,0,479.35,keyup
1156279,29,497,"2015-09-04 15:23:23",test,1,same,space,0,515.13,keyup
1156279,30,497,"2015-09-04 15:23:23",test,1,different,space,0,530.59,keyup
1156279,31,497,"2015-09-04 15:23:23",test,1,different,space,0,347.36,keyup
1156279,32,497,"2015-09-04 15:23:23",test,1,different,space,0,6665.87,keyup
1156279,33,497,"2015-09-04 15:23:23",test,1,same,space,0,5940.57,keyup
1156279,34,497,"2015-09-04 15:23:23",test,1,different,space,0,7791.16,keyup
1156279,35,497,"2015-09-04 15:23:23",test,1,different,space,0,1790.76,keyup
1156365,1,867,"2015-09-04 17:16:42",practice,1,same,s,0,1745.90,keyup
1156365,2,867,"2015-09-04 17:16:42",practice,1,same,a,0,613.48,keyup
1156365,3,867,"2015-09-04 17:16:42",practice,1,same,l,1,402.14,keyup
1156365,4,867,"2015-09-04 17:16:42",practice,2,different,l,0,515.72,keyup
1156365,5,867,"2015-09-04 17:16:42",practice,2,different,a,1,203.33,keyup
1156365,6,867,"2015-09-04 17:16:42",practice,2,same,l,1,936.35,keyup
1156365,7,867,"2015-09-04 17:16:42",practice,2,same,a,0,762.92,keyup
1156365,8,867,"2015-09-04 17:16:42",practice,2,same,l,1,344.51,keyup
1156365,9,867,"2015-09-04 17:16:42",practice,2,different,a,1,261.57,keyup
1156365,10,867,"2015-09-04 17:16:42",practice,2,different,a,1,257.85,keyup
1156365,11,867,"2015-09-04 17:16:42",practice,3,same,l,1,1063.30,keyup
1156365,12,867,"2015-09-04 17:16:42",practice,3,different,a,1,279.94,keyup
1156365,13,867,"2015-09-04 17:16:42",test,3,different,a,1,329.09,keyup
1156365,14,867,"2015-09-04 17:16:42",test,4,same,a,0,226.18,keyup
1156365,15,867,"2015-09-04 17:16:42",test,3,same,l,1,1154.35,keyup
1156365,16,867,"2015-09-04 17:16:42",test,3,different,s,0,602.62,keyup
1156365,17,867,"2015-09-04 17:16:42",test,2,same,b,0,570.23,keyup
1156365,18,867,"2015-09-04 17:16:42",test,1,different,m,0,1413.86,keyup
1156365,19,867,"2015-09-04 17:16:42",test,1,same,l,1,402.61,keyup
1156365,20,867,"2015-09-04 17:16:42",test,1,same,l,1,1027.57,keyup
1156365,21,867,"2015-09-04 17:16:42",test,2,same,l,1,1101.78,keyup
1156365,22,867,"2015-09-04 17:16:42",test,3,same,l,1,56623.64,keyup
1156365,23,867,"2015-09-04 17:16:42",test,4,same,l,1,182.84,keyup
1156365,24,867,"2015-09-04 17:16:42",test,5,different,s,0,711.52,keyup
1156365,25,867,"2015-09-04 17:16:42",test,4,same,a,0,546.97,keyup
1156365,26,867,"2015-09-04 17:16:42",test,3,different,a,1,1478.81,keyup
1156365,27,867,"2015-09-04 17:16:42",test,3,different,a,1,527.88,keyup
1156365,28,867,"2015-09-04 17:16:42",test,4,same,l,1,2248.52,keyup
1156365,29,867,"2015-09-04 17:16:42",test,5,different,a,1,8871.60,keyup
1156365,30,867,"2015-09-04 17:16:42",test,6,same,l,1,8913.17,keyup
1156365,31,867,"2015-09-04 17:16:42",test,7,different,l,0,14752.06,keyup
1156365,32,867,"2015-09-04 17:16:42",test,6,different,a,1,1045.99,keyup
1156365,33,867,"2015-09-04 17:16:42",test,6,different,l,0,830.33,keyup
1156365,34,867,"2015-09-04 17:16:42",test,5,same,l,1,323.35,keyup
1156365,35,867,"2015-09-04 17:16:42",test,5,different,a,1,679.71,keyup
1156365,36,867,"2015-09-04 17:16:42",test,6,different,a,1,319.38,keyup
1159621,1,1066,"2015-09-08 10:26:14",practice,1,same,m,1,1013.34,keyup
1159621,2,1066,"2015-09-08 10:26:14",practice,2,different,z,1,1064.63,keyup
1159621,3,1066,"2015-09-08 10:26:14",practice,2,same,m,1,1800.00,keyup
1159621,4,1066,"2015-09-08 10:26:14",practice,2,same,m,1,22560.28,keyup
1159621,5,1066,"2015-09-08 10:26:14",practice,2,different,z,1,1188.85,keyup
1159621,6,1066,"2015-09-08 10:26:14",practice,2,different,m,0,7151.08,keyup
1159621,7,1066,"2015-09-08 10:26:14",practice,2,different,m,0,1183.12,keyup
1159621,8,1066,"2015-09-08 10:26:14",practice,2,different,z,1,775.81,keyup
1159621,9,1066,"2015-09-08 10:26:14",practice,3,same,z,0,5600.74,keyup
1159621,10,1066,"2015-09-08 10:26:14",practice,3,same,m,1,1528.93,keyup
1159621,11,1066,"2015-09-08 10:26:14",practice,3,different,z,1,3248.56,keyup
1159621,12,1066,"2015-09-08 10:26:14",test,3,different,z,1,2070.04,keyup
1159621,13,1066,"2015-09-08 10:26:14",test,4,same,z,0,3002.94,keyup
1159621,14,1066,"2015-09-08 10:26:14",test,3,same,z,0,4072.00,keyup
1159621,15,1066,"2015-09-08 10:26:14",test,2,different,m,0,1314.34,keyup
1159621,16,1066,"2015-09-08 10:26:14",test,1,same,m,1,1940.53,keyup
1159621,17,1066,"2015-09-08 10:26:14",test,1,different,z,1,2166.10,keyup
1159621,18,1066,"2015-09-08 10:26:14",test,2,same,m,1,1945.13,keyup
1159621,19,1066,"2015-09-08 10:26:14",test,3,same,z,0,2092.76,keyup
1159621,20,1066,"2015-09-08 10:26:14",test,2,same,m,1,1352.04,keyup
1159621,21,1066,"2015-09-08 10:26:14",test,2,same,z,0,1995.09,keyup
1159621,22,1066,"2015-09-08 10:26:14",test,1,same,m,1,8491.36,keyup
1159621,23,1066,"2015-09-08 10:26:14",test,1,different,z,1,3955.04,keyup
1159621,24,1066,"2015-09-08 10:26:14",test,2,same,z,0,3415.71,keyup
1159621,25,1066,"2015-09-08 10:26:14",test,1,different,z,1,2225.15,keyup
1159621,26,1066,"2015-09-08 10:26:14",test,1,different,z,1,1965.03,keyup
1159621,27,1066,"2015-09-08 10:26:14",test,2,same,m,1,1953.46,keyup
1159621,28,1066,"2015-09-08 10:26:14",test,3,different,m,0,319.83,keyup
1159621,29,1066,"2015-09-08 10:26:14",test,2,same,m,1,2496.44,keyup
1159621,30,1066,"2015-09-08 10:26:14",test,2,different,z,1,2577.17,keyup
1159621,31,1066,"2015-09-08 10:26:14",test,3,different,z,1,1725.21,keyup
1159621,32,1066,"2015-09-08 10:26:14",test,4,different,z,1,2614.45,keyup
1159621,33,1066,"2015-09-08 10:26:14",test,5,same,z,0,2149.44,keyup
1159621,34,1066,"2015-09-08 10:26:14",test,4,different,z,1,1844.92,keyup
1159621,35,1066,"2015-09-08 10:26:14",test,4,different,z,1,837.59,keyup
1159620,1,1076,"2015-09-08 10:26:16",practice,1,same,m,1,12468.86,keyup
1159620,2,1076,"2015-09-08 10:26:16",practice,2,different,z,1,1574.63,keyup
1159620,3,1076,"2015-09-08 10:26:16",practice,2,same,m,1,108.00,keyup
1159620,4,1076,"2015-09-08 10:26:16",practice,2,same,z,0,3374.03,keyup
1159620,5,1076,"2015-09-08 10:26:16",practice,2,same,m,1,1574.75,keyup
1159620,6,1076,"2015-09-08 10:26:16",practice,2,different,z,1,989.93,keyup
1159620,7,1076,"2015-09-08 10:26:16",practice,2,different,z,1,2153.27,keyup
1159620,8,1076,"2015-09-08 10:26:16",practice,3,same,m,1,520.91,keyup
1159620,9,1076,"2015-09-08 10:26:16",practice,3,different,z,1,492.56,keyup
1159620,10,1076,"2015-09-08 10:26:16",test,3,different,z,1,171.36,keyup
1159620,11,1076,"2015-09-08 10:26:16",test,4,same,z,0,3061.81,keyup
1159620,12,1076,"2015-09-08 10:26:16",test,3,same,m,1,501.01,keyup
1159620,13,1076,"2015-09-08 10:26:16",test,3,different,z,1,71.56,keyup
1159620,14,1076,"2015-09-08 10:26:16",test,4,same,m,1,1298.93,keyup
1159620,15,1076,"2015-09-08 10:26:16",test,5,different,m,0,1117.18,keyup
1159620,16,1076,"2015-09-08 10:26:16",test,4,same,m,1,573.33,keyup
1159620,17,1076,"2015-09-08 10:26:16",test,4,same,m,1,119.31,keyup
1159620,18,1076,"2015-09-08 10:26:16",test,5,same,z,0,2206.53,keyup
1159620,19,1076,"2015-09-08 10:26:16",test,4,same,m,1,540.74,keyup
1159620,20,1076,"2015-09-08 10:26:16",test,4,same,z,0,1403.60,keyup
1159620,21,1076,"2015-09-08 10:26:16",test,3,different,z,1,494.20,keyup
1159620,22,1076,"2015-09-08 10:26:16",test,3,same,m,1,462.63,keyup
1159620,23,1076,"2015-09-08 10:26:16",test,4,different,z,1,1143.31,keyup
1159620,24,1076,"2015-09-08 10:26:16",test,5,different,m,0,425.87,keyup
1159620,25,1076,"2015-09-08 10:26:16",test,4,same,z,0,650.36,keyup
1159620,26,1076,"2015-09-08 10:26:16",test,3,different,z,1,628.63,keyup
1159620,27,1076,"2015-09-08 10:26:16",test,3,same,m,1,2646.77,keyup
1159620,28,1076,"2015-09-08 10:26:16",test,4,different,z,1,2263.36,keyup
1159620,29,1076,"2015-09-08 10:26:16",test,5,different,z,1,1357.03,keyup
1159620,30,1076,"2015-09-08 10:26:16",test,6,different,z,1,1294.32,keyup
1159620,31,1076,"2015-09-08 10:26:16",test,7,same,m,1,727.48,keyup
1159620,32,1076,"2015-09-08 10:26:16",test,8,different,m,0,1378.20,keyup
1159620,33,1076,"2015-09-08 10:26:16",test,7,different,z,1,1593.37,keyup
1159623,1,1097,"2015-09-08 10:26:23",practice,1,same,m,1,446.11,keyup
1159623,2,1097,"2015-09-08 10:26:23",practice,2,different,z,1,24583.54,keyup
1159623,3,1097,"2015-09-08 10:26:23",practice,2,same,z,0,2648.02,keyup
1159623,4,1097,"2015-09-08 10:26:23",practice,2,same,m,1,2889.62,keyup
1159623,5,1097,"2015-09-08 10:26:23",practice,2,same,m,1,3137.13,keyup
1159623,6,1097,"2015-09-08 10:26:23",practice,2,different,z,1,6618.23,keyup
1159623,7,1097,"2015-09-08 10:26:23",practice,2,different,z,1,4968.80,keyup
1159623,8,1097,"2015-09-08 10:26:23",practice,3,same,m,1,1139.10,keyup
1159623,9,1097,"2015-09-08 10:26:23",practice,3,different,z,1,104.12,keyup
1159623,10,1097,"2015-09-08 10:26:23",test,3,different,z,1,656.30,keyup
1159623,11,1097,"2015-09-08 10:26:23",test,4,same,m,1,3988.67,keyup
1159623,12,1097,"2015-09-08 10:26:23",test,5,same,m,1,4260.32,keyup
1159623,13,1097,"2015-09-08 10:26:23",test,6,different,m,0,2649.14,keyup
1159623,14,1097,"2015-09-08 10:26:23",test,5,same,m,1,221.68,keyup
1159623,15,1097,"2015-09-08 10:26:23",test,5,different,z,1,1079.80,keyup
1159623,16,1097,"2015-09-08 10:26:23",test,6,same,z,0,13154.02,keyup
1159623,17,1097,"2015-09-08 10:26:23",test,5,same,z,0,4019.60,keyup
1159623,18,1097,"2015-09-08 10:26:23",test,4,same,m,1,7656.84,keyup
1159623,19,1097,"2015-09-08 10:26:23",test,4,same,z,0,4640.88,keyup
1159623,20,1097,"2015-09-08 10:26:23",test,3,same,z,0,618.58,keyup
1159623,21,1097,"2015-09-08 10:26:23",test,2,different,m,0,389.08,keyup
1159623,22,1097,"2015-09-08 10:26:23",test,1,same,z,0,5909.78,keyup
1159623,23,1097,"2015-09-08 10:26:23",test,1,different,m,0,4719.95,keyup
1159623,24,1097,"2015-09-08 10:26:23",test,1,different,z,1,4733.34,keyup
1159623,25,1097,"2015-09-08 10:26:23",test,1,same,m,1,1529.07,keyup
1159623,26,1097,"2015-09-08 10:26:23",test,2,different,m,0,2163.63,keyup
1159623,27,1097,"2015-09-08 10:26:23",test,1,same,m,1,3078.95,keyup
1159623,28,1097,"2015-09-08 10:26:23",test,1,different,z,1,2843.18,keyup
1159623,29,1097,"2015-09-08 10:26:23",test,2,different,m,0,2252.95,keyup
1159623,30,1097,"2015-09-08 10:26:23",test,1,different,m,0,5141.28,keyup
1159623,31,1097,"2015-09-08 10:26:23",test,1,same,m,1,2054.48,keyup
1159623,32,1097,"2015-09-08 10:26:23",test,1,different,m,0,3982.30,keyup
1159623,33,1097,"2015-09-08 10:26:23",test,1,different,z,1,1958.73,keyup
1159618,1,1314,"2015-09-08 10:27:13",practice,1,same,m,1,1791.49,keyup
1159618,2,1314,"2015-09-08 10:27:13",practice,2,different,z,1,10811.71,keyup
1159618,3,1314,"2015-09-08 10:27:13",practice,2,same,z,0,29115.97,keyup
1159618,4,1314,"2015-09-08 10:27:13",practice,2,same,z,0,23055.73,keyup
1159618,5,1314,"2015-09-08 10:27:13",practice,2,same,m,1,1514.08,keyup
1159618,6,1314,"2015-09-08 10:27:13",practice,2,same,m,1,1850.02,keyup
1159618,7,1314,"2015-09-08 10:27:13",practice,2,different,m,0,1008.91,keyup
1159618,8,1314,"2015-09-08 10:27:13",practice,2,different,z,1,5431.50,keyup
1159618,9,1314,"2015-09-08 10:27:13",practice,2,different,m,0,2740.35,keyup
1159618,10,1314,"2015-09-08 10:27:13",practice,2,different,z,1,3764.92,keyup
1159618,11,1314,"2015-09-08 10:27:13",practice,3,same,z,0,3115.07,keyup
1159618,12,1314,"2015-09-08 10:27:13",practice,3,same,z,0,2577.26,keyup
1159618,13,1314,"2015-09-08 10:27:13",practice,3,same,m,1,2318.00,keyup
1159618,14,1314,"2015-09-08 10:27:13",practice,3,different,m,0,1642.90,keyup
1159618,15,1314,"2015-09-08 10:27:13",practice,3,different,m,0,3935.50,keyup
1159618,16,1314,"2015-09-08 10:27:13",practice,3,different,z,1,11222.77,keyup
1159618,17,1314,"2015-09-08 10:27:13",test,3,different,m,0,4037.10,keyup
1159618,18,1314,"2015-09-08 10:27:13",test,2,same,z,0,4239.53,keyup
1159618,19,1314,"2015-09-08 10:27:13",test,1,same,m,1,28540.87,keyup
1159618,20,1314,"2015-09-08 10:27:13",test,1,different,m,0,9986.13,keyup
1159618,21,1314,"2015-09-08 10:27:13",test,1,same,z,0,4909.75,keyup
1159618,22,1314,"2015-09-08 10:27:13",test,1,different,m,0,22647.48,keyup
1159618,23,1314,"2015-09-08 10:27:13",test,1,same,m,1,2863.95,keyup
1159618,24,1314,"2015-09-08 10:27:13",test,1,same,m,1,6458.34,keyup
1159618,25,1314,"2015-09-08 10:27:13",test,2,same,m,1,15601.22,keyup
1159618,26,1314,"2015-09-08 10:27:13",test,3,same,z,0,8364.97,keyup
1159618,27,1314,"2015-09-08 10:27:13",test,2,same,m,1,2320.27,keyup
1159618,28,1314,"2015-09-08 10:27:13",test,2,different,m,0,6279.13,keyup
1159618,29,1314,"2015-09-08 10:27:13",test,1,same,m,1,22978.87,keyup
1159618,30,1314,"2015-09-08 10:27:13",test,1,different,z,1,1798.54,keyup
1159618,31,1314,"2015-09-08 10:27:13",test,2,different,m,0,5285.36,keyup
1159618,32,1314,"2015-09-08 10:27:13",test,1,same,m,1,3752.85,keyup
1159618,33,1314,"2015-09-08 10:27:13",test,1,different,m,0,5581.94,keyup
1159618,34,1314,"2015-09-08 10:27:13",test,1,same,m,1,4722.13,keyup
1159618,35,1314,"2015-09-08 10:27:13",test,1,different,z,1,8422.30,keyup
1159618,36,1314,"2015-09-08 10:27:13",test,2,different,m,0,784.22,keyup
1159618,37,1314,"2015-09-08 10:27:13",test,1,different,m,0,4253.63,keyup
1159618,38,1314,"2015-09-08 10:27:13",test,1,same,m,1,2202.65,keyup
1159618,39,1314,"2015-09-08 10:27:13",test,1,different,m,0,2420.52,keyup
1159618,40,1314,"2015-09-08 10:27:13",test,1,different,z,1,3421.12,keyup
1159753,1,836,"2015-09-08 14:03:02",practice,1,same,m,1,6987.66,keyup
1159753,2,836,"2015-09-08 14:03:02",practice,2,different,z,1,2571.31,keyup
1159753,3,836,"2015-09-08 14:03:02",practice,2,same,m,1,1939.96,keyup
1159753,4,836,"2015-09-08 14:03:02",practice,2,same,m,1,1618.27,keyup
1159753,5,836,"2015-09-08 14:03:02",practice,2,different,z,1,6435.09,keyup
1159753,6,836,"2015-09-08 14:03:02",practice,2,different,z,1,903.74,keyup
1159753,7,836,"2015-09-08 14:03:02",practice,3,same,m,1,2572.37,keyup
1159753,8,836,"2015-09-08 14:03:02",practice,3,different,z,1,9104.91,keyup
1159753,9,836,"2015-09-08 14:03:02",test,3,different,m,0,3517.02,keyup
1159753,10,836,"2015-09-08 14:03:02",test,2,same,m,1,1990.07,keyup
1159753,11,836,"2015-09-08 14:03:02",test,2,same,m,1,3475.76,keyup
1159753,12,836,"2015-09-08 14:03:02",test,3,different,m,0,4373.89,keyup
1159753,13,836,"2015-09-08 14:03:02",test,2,same,m,1,3116.04,keyup
1159753,14,836,"2015-09-08 14:03:02",test,2,different,m,0,2605.56,keyup
1159753,15,836,"2015-09-08 14:03:02",test,1,same,m,1,2503.02,keyup
1159753,16,836,"2015-09-08 14:03:02",test,1,same,m,1,1403.46,keyup
1159753,17,836,"2015-09-08 14:03:02",test,2,same,m,1,1953.95,keyup
1159753,18,836,"2015-09-08 14:03:02",test,3,same,m,1,707.96,keyup
1159753,19,836,"2015-09-08 14:03:02",test,4,same,z,0,1613.17,keyup
1159753,20,836,"2015-09-08 14:03:02",test,3,different,z,1,2483.82,keyup
1159753,21,836,"2015-09-08 14:03:02",test,3,same,z,0,1632.27,keyup
1159753,22,836,"2015-09-08 14:03:02",test,2,different,m,0,2352.67,keyup
1159753,23,836,"2015-09-08 14:03:02",test,1,different,z,1,2279.04,keyup
1159753,24,836,"2015-09-08 14:03:02",test,1,same,m,1,2025.43,keyup
1159753,25,836,"2015-09-08 14:03:02",test,2,different,z,1,2641.62,keyup
1159753,26,836,"2015-09-08 14:03:02",test,3,same,z,0,4680.87,keyup
1159753,27,836,"2015-09-08 14:03:02",test,2,different,m,0,1590.06,keyup
1159753,28,836,"2015-09-08 14:03:02",test,1,different,z,1,2125.47,keyup
1159753,29,836,"2015-09-08 14:03:02",test,1,different,z,1,1325.51,keyup
1159753,30,836,"2015-09-08 14:03:02",test,2,same,m,1,3429.08,keyup
1159753,31,836,"2015-09-08 14:03:02",test,3,different,m,0,2654.54,keyup
1159753,32,836,"2015-09-08 14:03:02",test,2,different,z,1,1262.49,keyup
1159779,1,647,"2015-09-08 14:09:45",practice,1,same,m,1,3197.97,keyup
1159779,2,647,"2015-09-08 14:09:45",practice,2,different,z,1,1424.44,keyup
1159779,3,647,"2015-09-08 14:09:45",practice,2,same,m,1,790.26,keyup
1159779,4,647,"2015-09-08 14:09:45",practice,2,same,z,0,1992.82,keyup
1159779,5,647,"2015-09-08 14:09:45",practice,2,same,m,1,2620.98,keyup
1159779,6,647,"2015-09-08 14:09:45",practice,2,different,z,1,4594.13,keyup
1159779,7,647,"2015-09-08 14:09:45",practice,2,different,m,0,3535.44,keyup
1159779,8,647,"2015-09-08 14:09:45",practice,2,different,m,0,7418.64,keyup
1159779,9,647,"2015-09-08 14:09:45",practice,2,different,z,1,20409.63,keyup
1159779,10,647,"2015-09-08 14:09:45",practice,3,same,m,1,5397.97,keyup
1159779,11,647,"2015-09-08 14:09:45",practice,3,different,z,1,5746.61,keyup
1159779,12,647,"2015-09-08 14:09:45",test,3,different,m,0,8257.36,keyup
1159779,13,647,"2015-09-08 14:09:45",test,2,same,z,0,1690.28,keyup
1159779,14,647,"2015-09-08 14:09:45",test,1,same,z,0,14022.46,keyup
1159779,15,647,"2015-09-08 14:09:45",test,1,different,m,0,3757.61,keyup
1159779,16,647,"2015-09-08 14:09:45",test,1,same,z,0,10754.58,keyup
1159779,17,647,"2015-09-08 14:09:45",test,1,different,z,1,8797.03,keyup
1159779,18,647,"2015-09-08 14:09:45",test,1,same,z,0,7738.30,keyup
1159779,19,647,"2015-09-08 14:09:45",test,1,same,m,1,4898.01,keyup
1159779,20,647,"2015-09-08 14:09:45",test,1,same,z,0,12962.28,keyup
1159779,21,647,"2015-09-08 14:09:45",test,1,same,m,1,4580.64,keyup
1159779,22,647,"2015-09-08 14:09:45",test,1,same,z,0,180.25,keyup
1159779,23,647,"2015-09-08 14:09:45",test,1,different,z,1,1910.20,keyup
1159779,24,647,"2015-09-08 14:09:45",test,1,same,m,1,20.45,keyup
1159779,25,647,"2015-09-08 14:09:45",test,2,different,z,1,403.76,keyup
1159779,26,647,"2015-09-08 14:09:45",test,3,different,z,1,195.35,keyup
1159779,27,647,"2015-09-08 14:09:45",test,4,same,z,0,79.23,keyup
1159779,28,647,"2015-09-08 14:09:45",test,3,different,m,0,3369.26,keyup
1159779,29,647,"2015-09-08 14:09:45",test,2,same,z,0,900.52,keyup
1159779,30,647,"2015-09-08 14:09:45",test,1,different,m,0,3257.74,keyup
1159779,31,647,"2015-09-08 14:09:45",test,1,different,z,1,9519.87,keyup
1159779,32,647,"2015-09-08 14:09:45",test,1,different,m,0,1622.22,keyup
1159779,33,647,"2015-09-08 14:09:45",test,1,same,m,1,8516.03,keyup
1159779,34,647,"2015-09-08 14:09:45",test,1,different,m,0,1805.91,keyup
1159779,35,647,"2015-09-08 14:09:45",test,1,different,z,1,1120.66,keyup
1159752,1,1254,"2015-09-08 14:00:36",practice,1,same,z,0,528.70,keyup
1159752,2,1254,"2015-09-08 14:00:36",practice,1,same,m,1,370.79,keyup
1159752,3,1254,"2015-09-08 14:00:36",practice,2,different,z,1,186.76,keyup
1159752,4,1254,"2015-09-08 14:00:36",practice,2,same,m,1,102.58,keyup
1159752,5,1254,"2015-09-08 14:00:36",practice,2,same,m,1,1423.35,keyup
1159752,6,1254,"2015-09-08 14:00:36",practice,2,different,z,1,159.60,keyup
1159752,7,1254,"2015-09-08 14:00:36",practice,2,different,z,1,2386.89,keyup
1159752,8,1254,"2015-09-08 14:00:36",practice,3,same,z,0,189.55,keyup
1159752,9,1254,"2015-09-08 14:00:36",practice,3,same,z,0,829.33,keyup
1159752,10,1254,"2015-09-08 14:00:36",practice,3,same,m,1,399.50,keyup
1159752,11,1254,"2015-09-08 14:00:36",practice,3,different,z,1,1741.90,keyup
1159752,12,1254,"2015-09-08 14:00:36",test,3,different,z,1,7817.50,keyup
1159752,13,1254,"2015-09-08 14:00:36",test,4,same,m,1,2679.06,keyup
1159752,14,1254,"2015-09-08 14:00:36",test,5,same,z,0,824.97,keyup
1159752,15,1254,"2015-09-08 14:00:36",test,4,different,z,1,1879.58,keyup
1159752,16,1254,"2015-09-08 14:00:36",test,4,same,z,0,2164.98,keyup
1159752,17,1254,"2015-09-08 14:00:36",test,3,different,z,1,1494.40,keyup
1159752,18,1254,"2015-09-08 14:00:36",test,3,same,m,1,105.24,keyup
1159752,19,1254,"2015-09-08 14:00:36",test,4,same,z,0,2473.68,keyup
1159752,20,1254,"2015-09-08 14:00:36",test,3,same,m,1,2043.11,keyup
1159752,21,1254,"2015-09-08 14:00:36",test,3,same,m,1,802.14,keyup
1159752,22,1254,"2015-09-08 14:00:36",test,4,same,m,1,1091.82,keyup
1159752,23,1254,"2015-09-08 14:00:36",test,5,different,m,0,756.77,keyup
1159752,24,1254,"2015-09-08 14:00:36",test,4,same,m,1,1197.38,keyup
1159752,25,1254,"2015-09-08 14:00:36",test,4,different,m,0,254.74,keyup
1159752,26,1254,"2015-09-08 14:00:36",test,3,different,z,1,659.30,keyup
1159752,27,1254,"2015-09-08 14:00:36",test,3,same,m,1,936.38,keyup
1159752,28,1254,"2015-09-08 14:00:36",test,4,different,z,1,1168.50,keyup
1159752,29,1254,"2015-09-08 14:00:36",test,5,same,z,0,1069.07,keyup
1159752,30,1254,"2015-09-08 14:00:36",test,4,different,z,1,9947.28,keyup
1159752,31,1254,"2015-09-08 14:00:36",test,4,different,m,0,878.26,keyup
1159752,32,1254,"2015-09-08 14:00:36",test,3,different,z,1,758.75,keyup
1159752,33,1254,"2015-09-08 14:00:36",test,3,same,z,0,1874.89,keyup
1159752,34,1254,"2015-09-08 14:00:36",test,2,different,z,1,1675.34,keyup
1159752,35,1254,"2015-09-08 14:00:36",test,2,different,z,1,2052.05,keyup
1159782,1,1111,"2015-09-08 14:03:01",practice,1,same,m,1,10663.80,keyup
1159782,2,1111,"2015-09-08 14:03:01",practice,2,different,m,0,14124.38,keyup
1159782,3,1111,"2015-09-08 14:03:01",practice,2,different,z,1,12155.10,keyup
1159782,4,1111,"2015-09-08 14:03:01",practice,2,same,m,1,3779.02,keyup
1159782,5,1111,"2015-09-08 14:03:01",practice,2,same,m,1,1795.67,keyup
1159782,6,1111,"2015-09-08 14:03:01",practice,2,different,z,1,2222.99,keyup
1159782,7,1111,"2015-09-08 14:03:01",practice,2,different,z,1,13465.34,keyup
1159782,8,1111,"2015-09-08 14:03:01",practice,3,same,m,1,2478.61,keyup
1159782,9,1111,"2015-09-08 14:03:01",practice,3,different,z,1,5794.10,keyup
1159782,10,1111,"2015-09-08 14:03:01",test,3,different,z,1,3932.79,keyup
1159782,11,1111,"2015-09-08 14:03:01",test,4,same,z,0,777.66,keyup
1159782,12,1111,"2015-09-08 14:03:01",test,3,same,z,0,2700.02,keyup
1159782,13,1111,"2015-09-08 14:03:01",test,2,different,z,1,2429.41,keyup
1159782,14,1111,"2015-09-08 14:03:01",test,2,same,m,1,673.52,keyup
1159782,15,1111,"2015-09-08 14:03:01",test,3,different,z,1,2780.07,keyup
1159782,16,1111,"2015-09-08 14:03:01",test,4,same,m,1,627.36,keyup
1159782,17,1111,"2015-09-08 14:03:01",test,5,same,z,0,2226.30,keyup
1159782,18,1111,"2015-09-08 14:03:01",test,4,same,z,0,2565.60,keyup
1159782,19,1111,"2015-09-08 14:03:01",test,3,same,m,1,1010.88,keyup
1159782,20,1111,"2015-09-08 14:03:01",test,3,same,m,1,2634.50,keyup
1159782,21,1111,"2015-09-08 14:03:01",test,4,different,z,1,2506.56,keyup
1159782,22,1111,"2015-09-08 14:03:01",test,5,same,m,1,2757.49,keyup
1159782,23,1111,"2015-09-08 14:03:01",test,6,different,z,1,2341.84,keyup
1159782,24,1111,"2015-09-08 14:03:01",test,7,different,m,0,7074.12,keyup
1159782,25,1111,"2015-09-08 14:03:01",test,6,same,m,1,3067.14,keyup
1159782,26,1111,"2015-09-08 14:03:01",test,6,different,m,0,2898.21,keyup
1159782,27,1111,"2015-09-08 14:03:01",test,5,same,z,0,6277.90,keyup
1159782,28,1111,"2015-09-08 14:03:01",test,4,different,m,0,5227.21,keyup
1159782,29,1111,"2015-09-08 14:03:01",test,3,different,m,0,8696.73,keyup
1159782,30,1111,"2015-09-08 14:03:01",test,2,different,z,1,1990.51,keyup
1159782,31,1111,"2015-09-08 14:03:01",test,2,same,m,1,1324.16,keyup
1159782,32,1111,"2015-09-08 14:03:01",test,3,different,z,1,3636.81,keyup
1159782,33,1111,"2015-09-08 14:03:01",test,4,different,m,0,1384.51,keyup
1159784,1,1079,"2015-09-08 14:03:40",practice,1,same,m,1,72.67,keyup
1159784,2,1079,"2015-09-08 14:03:40",practice,2,different,z,1,1653.65,keyup
1159784,3,1079,"2015-09-08 14:03:40",practice,2,same,m,1,3311.54,keyup
1159784,4,1079,"2015-09-08 14:03:40",practice,2,same,m,1,497.66,keyup
1159784,5,1079,"2015-09-08 14:03:40",practice,2,different,m,0,2613.32,keyup
1159784,6,1079,"2015-09-08 14:03:40",practice,2,different,z,1,1732.82,keyup
1159784,7,1079,"2015-09-08 14:03:40",practice,2,different,z,1,2008.54,keyup
1159784,8,1079,"2015-09-08 14:03:40",practice,3,same,z,0,5143.77,keyup
1159784,9,1079,"2015-09-08 14:03:40",practice,3,same,m,1,8367.87,keyup
1159784,10,1079,"2015-09-08 14:03:40",practice,3,different,z,1,1125.67,keyup
1159784,11,1079,"2015-09-08 14:03:40",test,3,different,z,1,1041.55,keyup
1159784,12,1079,"2015-09-08 14:03:40",test,4,same,m,1,911.66,keyup
1159784,13,1079,"2015-09-08 14:03:40",test,5,same,z,0,5981.43,keyup
1159784,14,1079,"2015-09-08 14:03:40",test,4,different,m,0,1388.14,keyup
1159784,15,1079,"2015-09-08 14:03:40",test,3,same,z,0,1185.98,keyup
1159784,16,1079,"2015-09-08 14:03:40",test,2,different,z,1,1188.84,keyup
1159784,17,1079,"2015-09-08 14:03:40",test,2,same,m,1,329.81,keyup
1159784,18,1079,"2015-09-08 14:03:40",test,3,same,m,1,951.47,keyup
1159784,19,1079,"2015-09-08 14:03:40",test,4,same,m,1,1376.09,keyup
1159784,20,1079,"2015-09-08 14:03:40",test,5,same,m,1,2026.35,keyup
1159784,21,1079,"2015-09-08 14:03:40",test,6,same,z,0,1784.91,keyup
1159784,22,1079,"2015-09-08 14:03:40",test,5,different,m,0,2216.76,keyup
1159784,23,1079,"2015-09-08 14:03:40",test,4,same,z,0,2037.17,keyup
1159784,24,1079,"2015-09-08 14:03:40",test,3,different,z,1,1700.91,keyup
1159784,25,1079,"2015-09-08 14:03:40",test,3,different,m,0,14840.48,keyup
1159784,26,1079,"2015-09-08 14:03:40",test,2,same,m,1,1490.94,keyup
1159784,27,1079,"2015-09-08 14:03:40",test,2,different,z,1,6891.79,keyup
1159784,28,1079,"2015-09-08 14:03:40",test,3,same,m,1,4716.66,keyup
1159784,29,1079,"2015-09-08 14:03:40",test,4,different,z,1,3411.07,keyup
1159784,30,1079,"2015-09-08 14:03:40",test,5,different,z,1,468.70,keyup
1159784,31,1079,"2015-09-08 14:03:40",test,6,different,m,0,863.86,keyup
1159784,32,1079,"2015-09-08 14:03:40",test,5,same,m,1,3018.36,keyup
1159784,33,1079,"2015-09-08 14:03:40",test,5,different,m,0,7436.66,keyup
1159784,34,1079,"2015-09-08 14:03:40",test,4,different,m,0,1993.54,keyup
1159749,1,1320,"2015-09-08 14:00:58",practice,1,same,z,0,42031.66,keyup
1159749,2,1320,"2015-09-08 14:00:58",practice,1,same,m,1,1466.72,keyup
1159749,3,1320,"2015-09-08 14:00:58",practice,2,different,z,1,4643.55,keyup
1159749,4,1320,"2015-09-08 14:00:58",practice,2,same,z,0,1899.60,keyup
1159749,5,1320,"2015-09-08 14:00:58",practice,2,same,m,1,643.61,keyup
1159749,6,1320,"2015-09-08 14:00:58",practice,2,same,z,0,39910.80,keyup
1159749,7,1320,"2015-09-08 14:00:58",practice,2,same,m,1,782.20,keyup
1159749,8,1320,"2015-09-08 14:00:58",practice,2,different,z,1,1917.24,keyup
1159749,9,1320,"2015-09-08 14:00:58",practice,2,different,m,0,1685.15,keyup
1159749,10,1320,"2015-09-08 14:00:58",practice,2,different,m,0,5854.54,keyup
1159749,11,1320,"2015-09-08 14:00:58",practice,2,different,z,1,4004.81,keyup
1159749,12,1320,"2015-09-08 14:00:58",practice,3,same,m,1,1163.60,keyup
1159749,13,1320,"2015-09-08 14:00:58",practice,3,different,m,0,7080.50,keyup
1159749,14,1320,"2015-09-08 14:00:58",practice,3,different,z,1,1583.57,keyup
1159749,15,1320,"2015-09-08 14:00:58",test,3,different,z,1,1942.34,keyup
1159749,16,1320,"2015-09-08 14:00:58",test,4,same,z,0,3312.40,keyup
1159749,17,1320,"2015-09-08 14:00:58",test,3,same,z,0,3561.28,keyup
1159749,18,1320,"2015-09-08 14:00:58",test,2,different,m,0,1784.79,keyup
1159749,19,1320,"2015-09-08 14:00:58",test,1,same,z,0,1534.58,keyup
1159749,20,1320,"2015-09-08 14:00:58",test,1,different,m,0,2718.30,keyup
1159749,21,1320,"2015-09-08 14:00:58",test,1,same,m,1,1643.75,keyup
1159749,22,1320,"2015-09-08 14:00:58",test,1,same,m,1,1474.25,keyup
1159749,23,1320,"2015-09-08 14:00:58",test,2,same,z,0,1478.35,keyup
1159749,24,1320,"2015-09-08 14:00:58",test,1,same,m,1,1952.45,keyup
1159749,25,1320,"2015-09-08 14:00:58",test,1,same,z,0,1944.17,keyup
1159749,26,1320,"2015-09-08 14:00:58",test,1,different,m,0,5194.30,keyup
1159749,27,1320,"2015-09-08 14:00:58",test,1,same,m,1,2657.27,keyup
1159749,28,1320,"2015-09-08 14:00:58",test,1,different,z,1,1515.79,keyup
1159749,29,1320,"2015-09-08 14:00:58",test,2,different,z,1,883.09,keyup
1159749,30,1320,"2015-09-08 14:00:58",test,3,same,z,0,625.05,keyup
1159749,31,1320,"2015-09-08 14:00:58",test,2,different,z,1,35884.36,keyup
1159749,32,1320,"2015-09-08 14:00:58",test,2,same,z,0,1471.77,keyup
1159749,33,1320,"2015-09-08 14:00:58",test,1,different,z,1,2130.86,keyup
1159749,34,1320,"2015-09-08 14:00:58",test,1,different,m,0,2006.44,keyup
1159749,35,1320,"2015-09-08 14:00:58",test,1,different,m,0,1717.02,keyup
1159749,36,1320,"2015-09-08 14:00:58",test,1,same,m,1,1300.79,keyup
1159749,37,1320,"2015-09-08 14:00:58",test,1,different,m,0,2951.84,keyup
1159749,38,1320,"2015-09-08 14:00:58",test,1,different,m,0,2635.32,keyup
1159785,1,1398,"2015-09-08 14:00:35",practice,1,same,z,0,10800.16,keyup
1159785,2,1398,"2015-09-08 14:00:35",practice,1,same,m,1,9562.61,keyup
1159785,3,1398,"2015-09-08 14:00:35",practice,2,different,z,1,3184.10,keyup
1159785,4,1398,"2015-09-08 14:00:35",practice,2,same,z,0,151.51,keyup
1159785,5,1398,"2015-09-08 14:00:35",practice,2,same,z,0,10300.32,keyup
1159785,6,1398,"2015-09-08 14:00:35",practice,2,same,m,1,276.54,keyup
1159785,7,1398,"2015-09-08 14:00:35",practice,2,same,m,1,82.14,keyup
1159785,8,1398,"2015-09-08 14:00:35",practice,2,different,z,1,568.53,keyup
1159785,9,1398,"2015-09-08 14:00:35",practice,2,different,z,1,698.80,keyup
1159785,10,1398,"2015-09-08 14:00:35",practice,3,same,z,0,1312.94,keyup
1159785,11,1398,"2015-09-08 14:00:35",practice,3,same,m,1,2317.89,keyup
1159785,12,1398,"2015-09-08 14:00:35",practice,3,different,z,1,2895.73,keyup
1159785,13,1398,"2015-09-08 14:00:35",test,3,different,m,0,3228.99,keyup
1159785,14,1398,"2015-09-08 14:00:35",test,2,same,m,1,867.52,keyup
1159785,15,1398,"2015-09-08 14:00:35",test,2,same,m,1,21716.36,keyup
1159785,16,1398,"2015-09-08 14:00:35",test,3,different,z,1,4383.96,keyup
1159785,17,1398,"2015-09-08 14:00:35",test,4,same,m,1,1784.16,keyup
1159785,18,1398,"2015-09-08 14:00:35",test,5,different,m,0,1395.32,keyup
1159785,19,1398,"2015-09-08 14:00:35",test,4,same,z,0,136.33,keyup
1159785,20,1398,"2015-09-08 14:00:35",test,3,same,m,1,1813.22,keyup
1159785,21,1398,"2015-09-08 14:00:35",test,3,same,m,1,1568.89,keyup
1159785,22,1398,"2015-09-08 14:00:35",test,4,same,m,1,710.50,keyup
1159785,23,1398,"2015-09-08 14:00:35",test,5,same,m,1,1540.79,keyup
1159785,24,1398,"2015-09-08 14:00:35",test,6,different,m,0,13010.14,keyup
1159785,25,1398,"2015-09-08 14:00:35",test,5,same,m,1,1466.11,keyup
1159785,26,1398,"2015-09-08 14:00:35",test,5,different,m,0,1416.41,keyup
1159785,27,1398,"2015-09-08 14:00:35",test,4,different,m,0,1160.32,keyup
1159785,28,1398,"2015-09-08 14:00:35",test,3,same,m,1,1264.38,keyup
1159785,29,1398,"2015-09-08 14:00:35",test,3,different,m,0,1575.66,keyup
1159785,30,1398,"2015-09-08 14:00:35",test,2,same,m,1,7618.87,keyup
1159785,31,1398,"2015-09-08 14:00:35",test,2,different,z,1,3291.61,keyup
1159785,32,1398,"2015-09-08 14:00:35",test,3,different,m,0,1612.97,keyup
1159785,33,1398,"2015-09-08 14:00:35",test,2,different,m,0,1125.32,keyup
1159785,34,1398,"2015-09-08 14:00:35",test,1,same,m,1,10303.99,keyup
1159785,35,1398,"2015-09-08 14:00:35",test,1,different,m,0,4498.59,keyup
1159785,36,1398,"2015-09-08 14:00:35",test,1,different,m,0,1366.19,keyup
1159780,1,1117,"2015-09-08 14:06:42",practice,1,same,m,1,8645.98,keyup
1159780,2,1117,"2015-09-08 14:06:42",practice,2,different,z,1,5321.12,keyup
1159780,3,1117,"2015-09-08 14:06:42",practice,2,same,m,1,1785.55,keyup
1159780,4,1117,"2015-09-08 14:06:42",practice,2,same,m,1,1405.07,keyup
1159780,5,1117,"2015-09-08 14:06:42",practice,2,different,z,1,3105.84,keyup
1159780,6,1117,"2015-09-08 14:06:42",practice,2,different,z,1,2059.83,keyup
1159780,7,1117,"2015-09-08 14:06:42",practice,3,same,m,1,2007.24,keyup
1159780,8,1117,"2015-09-08 14:06:42",practice,3,different,z,1,2001.45,keyup
1159780,9,1117,"2015-09-08 14:06:42",test,3,different,z,1,2628.88,keyup
1159780,10,1117,"2015-09-08 14:06:42",test,4,same,z,0,1749.02,keyup
1159780,11,1117,"2015-09-08 14:06:42",test,3,same,m,1,1741.29,keyup
1159780,12,1117,"2015-09-08 14:06:42",test,3,different,m,0,6697.50,keyup
1159780,13,1117,"2015-09-08 14:06:42",test,2,same,m,1,1622.33,keyup
1159780,14,1117,"2015-09-08 14:06:42",test,2,different,z,1,1714.99,keyup
1159780,15,1117,"2015-09-08 14:06:42",test,3,same,m,1,4244.75,keyup
1159780,16,1117,"2015-09-08 14:06:42",test,4,same,m,1,1330.22,keyup
1159780,17,1117,"2015-09-08 14:06:42",test,5,same,m,1,1414.22,keyup
1159780,18,1117,"2015-09-08 14:06:42",test,6,same,m,1,581.34,keyup
1159780,19,1117,"2015-09-08 14:06:42",test,7,same,z,0,791.91,keyup
1159780,20,1117,"2015-09-08 14:06:42",test,6,different,m,0,1593.95,keyup
1159780,21,1117,"2015-09-08 14:06:42",test,5,same,m,1,10566.13,keyup
1159780,22,1117,"2015-09-08 14:06:42",test,5,different,m,0,4644.07,keyup
1159780,23,1117,"2015-09-08 14:06:42",test,4,different,z,1,4369.19,keyup
1159780,24,1117,"2015-09-08 14:06:42",test,4,same,m,1,1820.25,keyup
1159780,25,1117,"2015-09-08 14:06:42",test,5,different,m,0,1252.94,keyup
1159780,26,1117,"2015-09-08 14:06:42",test,4,same,m,1,19074.54,keyup
1159780,27,1117,"2015-09-08 14:06:42",test,4,different,m,0,2602.42,keyup
1159780,28,1117,"2015-09-08 14:06:42",test,3,different,m,0,488.08,keyup
1159780,29,1117,"2015-09-08 14:06:42",test,2,different,m,0,11190.49,keyup
1159780,30,1117,"2015-09-08 14:06:42",test,1,same,m,1,9890.68,keyup
1159780,31,1117,"2015-09-08 14:06:42",test,1,different,m,0,2128.99,keyup
1159780,32,1117,"2015-09-08 14:06:42",test,1,different,m,0,14565.84,keyup
1160076,1,463,"2015-09-08 21:46:55",practice,1,same,m,1,934.73,keyup
1160076,2,463,"2015-09-08 21:46:55",practice,1,different,m,0,1815.23,keyup
1160076,3,463,"2015-09-08 21:46:55",practice,2,same,m,1,933.43,keyup
1160076,4,463,"2015-09-08 21:46:55",practice,2,different,z,1,570.21,keyup
1160076,5,463,"2015-09-08 21:46:55",practice,2,different,m,0,1292.65,keyup
1160076,6,463,"2015-09-08 21:46:55",practice,2,same,m,1,455.46,keyup
1160076,7,463,"2015-09-08 21:46:55",practice,2,same,m,1,205.35,keyup
1160076,8,463,"2015-09-08 21:46:55",practice,2,different,m,0,3036.47,keyup
1160076,9,463,"2015-09-08 21:46:55",test,2,different,z,1,681.99,keyup
1160076,10,463,"2015-09-08 21:46:55",test,2,same,m,1,937.07,keyup
1160076,11,463,"2015-09-08 21:46:55",test,3,same,m,1,454.62,keyup
1160076,12,463,"2015-09-08 21:46:55",test,4,different,m,0,398.22,keyup
1160076,13,463,"2015-09-08 21:46:55",test,3,same,m,1,649.35,keyup
1160076,14,463,"2015-09-08 21:46:55",test,3,different,z,1,589.32,keyup
1160076,15,463,"2015-09-08 21:46:55",test,4,same,m,1,972.12,keyup
1160076,16,463,"2015-09-08 21:46:55",test,5,same,m,1,478.13,keyup
1160076,17,463,"2015-09-08 21:46:55",test,6,same,m,1,631.10,keyup
1160076,18,463,"2015-09-08 21:46:55",test,7,same,m,1,705.58,keyup
1160076,19,463,"2015-09-08 21:46:55",test,8,same,z,0,1440.99,keyup
1160076,20,463,"2015-09-08 21:46:55",test,7,different,m,0,801.47,keyup
1160076,21,463,"2015-09-08 21:46:55",test,6,same,m,1,1051.56,keyup
1160076,22,463,"2015-09-08 21:46:55",test,6,different,m,0,691.27,keyup
1160076,23,463,"2015-09-08 21:46:55",test,5,different,m,0,688.41,keyup
1160076,24,463,"2015-09-08 21:46:55",test,4,same,m,1,712.03,keyup
1160076,25,463,"2015-09-08 21:46:55",test,4,different,m,0,3054.18,keyup
1160076,26,463,"2015-09-08 21:46:55",test,3,same,m,1,1285.17,keyup
1160076,27,463,"2015-09-08 21:46:55",test,3,different,m,0,621.14,keyup
1160076,28,463,"2015-09-08 21:46:55",test,2,different,z,1,488.88,keyup
1160076,29,463,"2015-09-08 21:46:55",test,2,different,z,1,509.14,keyup
1160076,30,463,"2015-09-08 21:46:55",test,3,same,m,1,493.53,keyup
1160076,31,463,"2015-09-08 21:46:55",test,4,different,z,1,240.70,keyup
1160076,32,463,"2015-09-08 21:46:55",test,5,different,m,0,866.38,keyup
1160083,1,3521,"2015-09-08 21:51:25",practice,1,same,z,0,8426.96,keyup
1160610,1,727,"2015-09-09 09:17:18",practice,1,same,m,1,492.34,keyup
1160610,2,727,"2015-09-09 09:17:18",practice,1,different,z,1,306.94,keyup
1160610,3,727,"2015-09-09 09:17:18",practice,2,same,z,0,1223.80,keyup
1160610,4,727,"2015-09-09 09:17:18",practice,2,different,z,1,363.78,keyup
1160610,5,727,"2015-09-09 09:17:18",practice,2,different,z,1,228.87,keyup
1160610,6,727,"2015-09-09 09:17:18",practice,2,same,z,0,823.60,keyup
1160610,7,727,"2015-09-09 09:17:18",practice,2,same,z,0,589.94,keyup
1160610,8,727,"2015-09-09 09:17:18",practice,2,different,z,1,327.68,keyup
1160610,9,727,"2015-09-09 09:17:18",test,3,different,z,1,475.62,keyup
1160610,10,727,"2015-09-09 09:17:18",test,4,same,z,0,586.79,keyup
1160610,11,727,"2015-09-09 09:17:18",test,3,same,z,0,512.42,keyup
1160610,12,727,"2015-09-09 09:17:18",test,2,different,z,1,471.01,keyup
1160610,13,727,"2015-09-09 09:17:18",test,2,same,z,0,760.45,keyup
1160610,14,727,"2015-09-09 09:17:18",test,1,different,z,1,817.30,keyup
1160610,15,727,"2015-09-09 09:17:18",test,1,same,z,0,737.61,keyup
1160610,16,727,"2015-09-09 09:17:18",test,1,same,z,0,1625.03,keyup
1160610,17,727,"2015-09-09 09:17:18",test,1,same,z,0,3044.52,keyup
1160610,18,727,"2015-09-09 09:17:18",test,1,same,z,0,717.70,keyup
1160610,19,727,"2015-09-09 09:17:18",test,1,same,z,0,538.67,keyup
1160610,20,727,"2015-09-09 09:17:18",test,1,different,z,1,716.23,keyup
1160610,21,727,"2015-09-09 09:17:18",test,1,same,z,0,989.50,keyup
1160610,22,727,"2015-09-09 09:17:18",test,1,different,z,1,2811.21,keyup
1160610,23,727,"2015-09-09 09:17:18",test,1,different,z,1,417.77,keyup
1160610,24,727,"2015-09-09 09:17:18",test,2,same,z,0,280.13,keyup
1160610,25,727,"2015-09-09 09:17:18",test,1,different,z,1,1390.29,keyup
1160610,26,727,"2015-09-09 09:17:18",test,1,same,z,0,6655.37,keyup
1160610,27,727,"2015-09-09 09:17:18",test,1,different,z,1,792.60,keyup
1160610,28,727,"2015-09-09 09:17:18",test,1,different,z,1,682.05,keyup
1160610,29,727,"2015-09-09 09:17:18",test,2,different,z,1,1423.19,keyup
1160610,30,727,"2015-09-09 09:17:18",test,3,same,z,0,3902.89,keyup
1160610,31,727,"2015-09-09 09:17:18",test,2,different,z,1,1425.83,keyup
1160610,32,727,"2015-09-09 09:17:18",test,2,different,z,1,1553.88,keyup
1160614,1,766,"2015-09-09 09:17:47",practice,1,same,m,1,6597.85,keyup
1160614,2,766,"2015-09-09 09:17:47",practice,1,different,z,1,18434.86,keyup
1160614,3,766,"2015-09-09 09:17:47",practice,2,same,m,1,9059.04,keyup
1160614,4,766,"2015-09-09 09:17:47",practice,2,different,z,1,19703.92,keyup
1160614,5,766,"2015-09-09 09:17:47",practice,2,different,z,1,12388.98,keyup
1160614,6,766,"2015-09-09 09:17:47",practice,2,same,z,0,4908.98,keyup
1160614,7,766,"2015-09-09 09:17:47",practice,2,same,z,0,4889.37,keyup
1160614,8,766,"2015-09-09 09:17:47",practice,2,different,m,0,544.13,keyup
1160614,9,766,"2015-09-09 09:17:47",test,2,different,m,0,37131.77,keyup
1160614,10,766,"2015-09-09 09:17:47",test,1,same,m,1,31258.61,keyup
1160614,11,766,"2015-09-09 09:17:47",test,1,same,m,1,3528.11,keyup
1160614,12,766,"2015-09-09 09:17:47",test,2,different,m,0,12960.77,keyup
1160614,13,766,"2015-09-09 09:17:47",test,1,same,z,0,11040.70,keyup
1160614,14,766,"2015-09-09 09:17:47",test,1,different,z,1,6825.55,keyup
1160614,15,766,"2015-09-09 09:17:47",test,1,same,m,1,3466.84,keyup
1160614,16,766,"2015-09-09 09:17:47",test,2,same,z,0,5096.60,keyup
1160614,17,766,"2015-09-09 09:17:47",test,1,same,z,0,7041.45,keyup
1160614,18,766,"2015-09-09 09:17:47",test,1,same,m,1,1251.90,keyup
1160614,19,766,"2015-09-09 09:17:47",test,1,same,m,1,1217.69,keyup
1160614,20,766,"2015-09-09 09:17:47",test,2,different,m,0,1240.88,keyup
1160614,21,766,"2015-09-09 09:17:47",test,1,same,m,1,2080.30,keyup
1160614,22,766,"2015-09-09 09:17:47",test,1,different,z,1,2377.80,keyup
1160614,23,766,"2015-09-09 09:17:47",test,2,different,m,0,1938.82,keyup
1160614,24,766,"2015-09-09 09:17:47",test,1,same,z,0,1907.27,keyup
1160614,25,766,"2015-09-09 09:17:47",test,1,different,m,0,8721.27,keyup
1160614,26,766,"2015-09-09 09:17:47",test,1,same,m,1,4306.05,keyup
1160614,27,766,"2015-09-09 09:17:47",test,1,different,m,0,7936.37,keyup
1160614,28,766,"2015-09-09 09:17:47",test,1,different,z,1,2891.11,keyup
1160614,29,766,"2015-09-09 09:17:47",test,1,different,m,0,3780.10,keyup
1160614,30,766,"2015-09-09 09:17:47",test,1,same,z,0,11603.04,keyup
1160614,31,766,"2015-09-09 09:17:47",test,1,different,m,0,1653.85,keyup
1160614,32,766,"2015-09-09 09:17:47",test,1,different,z,1,3847.32,keyup
1160608,1,722,"2015-09-09 09:18:42",practice,1,same,m,1,78307.73,keyup
1160608,2,722,"2015-09-09 09:18:42",practice,1,different,m,0,3801.34,keyup
1160608,3,722,"2015-09-09 09:18:42",practice,2,same,z,0,711.02,keyup
1160608,4,722,"2015-09-09 09:18:42",practice,2,different,z,1,4055.10,keyup
1160608,5,722,"2015-09-09 09:18:42",practice,2,different,z,1,1029.95,keyup
1160608,6,722,"2015-09-09 09:18:42",practice,2,same,z,0,362.99,keyup
1160608,7,722,"2015-09-09 09:18:42",practice,2,same,m,1,943.67,keyup
1160608,8,722,"2015-09-09 09:18:42",practice,2,different,z,1,783.34,keyup
1160608,9,722,"2015-09-09 09:18:42",test,3,different,z,1,3104.01,keyup
1160608,10,722,"2015-09-09 09:18:42",test,4,same,m,1,1007.06,keyup
1160608,11,722,"2015-09-09 09:18:42",test,5,same,m,1,14486.36,keyup
1160608,12,722,"2015-09-09 09:18:42",test,6,different,m,0,591.04,keyup
1160608,13,722,"2015-09-09 09:18:42",test,5,same,z,0,22533.57,keyup
1160608,14,722,"2015-09-09 09:18:42",test,4,different,m,0,1723.64,keyup
1160608,15,722,"2015-09-09 09:18:42",test,3,same,z,0,3522.15,keyup
1160608,16,722,"2015-09-09 09:18:42",test,2,same,m,1,1140.91,keyup
1160608,17,722,"2015-09-09 09:18:42",test,2,same,z,0,4365.87,keyup
1160608,18,722,"2015-09-09 09:18:42",test,1,same,m,1,2022.35,keyup
1160608,19,722,"2015-09-09 09:18:42",test,1,same,m,1,818.12,keyup
1160608,20,722,"2015-09-09 09:18:42",test,2,different,m,0,974.39,keyup
1160608,21,722,"2015-09-09 09:18:42",test,1,same,m,1,1918.98,keyup
1160608,22,722,"2015-09-09 09:18:42",test,1,different,z,1,3337.75,keyup
1160608,23,722,"2015-09-09 09:18:42",test,2,different,m,0,1075.67,keyup
1160609,1,764,"2015-09-09 09:19:43",practice,1,same,m,1,2186.45,keyup
1160609,2,764,"2015-09-09 09:19:43",practice,1,different,z,1,1246.38,keyup
1160609,3,764,"2015-09-09 09:19:43",practice,2,same,m,1,4482.61,keyup
1160609,4,764,"2015-09-09 09:19:43",practice,2,different,m,0,5040.59,keyup
1160609,5,764,"2015-09-09 09:19:43",practice,2,different,z,1,1983.67,keyup
1160609,6,764,"2015-09-09 09:19:43",practice,2,same,m,1,1796.88,keyup
1160609,7,764,"2015-09-09 09:19:43",practice,2,same,m,1,7519.12,keyup
1160609,8,764,"2015-09-09 09:19:43",practice,2,different,z,1,1045.65,keyup
1160609,9,764,"2015-09-09 09:19:43",test,3,different,m,0,2560.15,keyup
1160609,10,764,"2015-09-09 09:19:43",test,2,same,z,0,2702.74,keyup
1160609,11,764,"2015-09-09 09:19:43",test,1,same,m,1,2159.86,keyup
1160609,12,764,"2015-09-09 09:19:43",test,1,different,z,1,1890.40,keyup
1160609,13,764,"2015-09-09 09:19:43",test,2,same,m,1,1230.92,keyup
1160609,14,764,"2015-09-09 09:19:43",test,3,different,m,0,1645.19,keyup
1160609,15,764,"2015-09-09 09:19:43",test,2,same,z,0,1118.19,keyup
1160609,16,764,"2015-09-09 09:19:43",test,1,same,m,1,12236.88,keyup
1160609,17,764,"2015-09-09 09:19:43",test,1,same,m,1,2173.35,keyup
1160609,18,764,"2015-09-09 09:19:43",test,2,same,m,1,9853.75,keyup
1160609,19,764,"2015-09-09 09:19:43",test,3,same,m,1,1705.09,keyup
1160609,20,764,"2015-09-09 09:19:43",test,4,different,z,1,3603.12,keyup
1160609,21,764,"2015-09-09 09:19:43",test,5,same,m,1,1796.50,keyup
1160609,22,764,"2015-09-09 09:19:43",test,6,different,z,1,3711.28,keyup
1160609,23,764,"2015-09-09 09:19:43",test,7,different,m,0,1772.38,keyup
1160609,24,764,"2015-09-09 09:19:43",test,6,same,z,0,8634.83,keyup
1160609,25,764,"2015-09-09 09:19:43",test,5,different,z,1,3134.62,keyup
1160609,26,764,"2015-09-09 09:19:43",test,5,same,z,0,791.71,keyup
1160609,27,764,"2015-09-09 09:19:43",test,4,different,m,0,11115.22,keyup
1160616,1,854,"2015-09-09 09:18:30",practice,1,same,m,1,3868.50,keyup
1160616,2,854,"2015-09-09 09:18:30",practice,1,different,z,1,1737.15,keyup
1160616,3,854,"2015-09-09 09:18:30",practice,2,same,m,1,2464.99,keyup
1160616,4,854,"2015-09-09 09:18:30",practice,2,different,z,1,1205.28,keyup
1160616,5,854,"2015-09-09 09:18:30",practice,2,different,z,1,765.33,keyup
1160616,6,854,"2015-09-09 09:18:30",practice,2,same,m,1,1213.31,keyup
1160616,7,854,"2015-09-09 09:18:30",practice,2,same,m,1,774.38,keyup
1160616,8,854,"2015-09-09 09:18:30",practice,2,different,z,1,1094.34,keyup
1160616,9,854,"2015-09-09 09:18:30",test,3,different,z,1,783.48,keyup
1160616,10,854,"2015-09-09 09:18:30",test,4,same,m,1,3611.05,keyup
1160616,11,854,"2015-09-09 09:18:30",test,5,same,m,1,3467.81,keyup
1160616,12,854,"2015-09-09 09:18:30",test,6,different,z,1,2454.91,keyup
1160616,13,854,"2015-09-09 09:18:30",test,7,same,z,0,1559.96,keyup
1160616,14,854,"2015-09-09 09:18:30",test,6,different,m,0,2804.21,keyup
1160616,15,854,"2015-09-09 09:18:30",test,5,same,z,0,1217.56,keyup
1160616,16,854,"2015-09-09 09:18:30",test,4,same,m,1,4155.29,keyup
1160616,17,854,"2015-09-09 09:18:30",test,4,same,m,1,1794.36,keyup
1160616,18,854,"2015-09-09 09:18:30",test,5,same,m,1,2451.10,keyup
1160616,19,854,"2015-09-09 09:18:30",test,6,same,m,1,35.49,keyup
1160616,20,854,"2015-09-09 09:18:30",test,7,different,z,1,1714.07,keyup
1160616,21,854,"2015-09-09 09:18:30",test,8,same,m,1,3558.27,keyup
1160616,22,854,"2015-09-09 09:18:30",test,9,different,z,1,1520.93,keyup
1160616,23,854,"2015-09-09 09:18:30",test,10,different,m,0,1093.08,keyup
1160616,24,854,"2015-09-09 09:18:30",test,9,same,z,0,2450.89,keyup
1160616,25,854,"2015-09-09 09:18:30",test,8,different,z,1,4608.91,keyup
1160605,1,821,"2015-09-09 09:19:24",practice,1,same,m,1,5802.84,keyup
1160605,2,821,"2015-09-09 09:19:24",practice,1,different,z,1,2013.25,keyup
1160605,3,821,"2015-09-09 09:19:24",practice,2,same,z,0,910.33,keyup
1160605,4,821,"2015-09-09 09:19:24",practice,2,different,m,0,1722.22,keyup
1160605,5,821,"2015-09-09 09:19:24",practice,2,different,z,1,1157.55,keyup
1160605,6,821,"2015-09-09 09:19:24",practice,2,same,m,1,2291.84,keyup
1160605,7,821,"2015-09-09 09:19:24",practice,2,same,z,0,936.22,keyup
1160605,8,821,"2015-09-09 09:19:24",practice,2,different,m,0,4289.07,keyup
1160605,9,821,"2015-09-09 09:19:24",test,2,different,z,1,1205.77,keyup
1160605,10,821,"2015-09-09 09:19:24",test,2,same,m,1,1338.11,keyup
1160605,11,821,"2015-09-09 09:19:24",test,3,same,z,0,1266.93,keyup
1160605,12,821,"2015-09-09 09:19:24",test,2,different,m,0,1255.72,keyup
1160605,13,821,"2015-09-09 09:19:24",test,1,same,m,1,1757.63,keyup
1160605,14,821,"2015-09-09 09:19:24",test,1,different,z,1,2688.70,keyup
1160605,15,821,"2015-09-09 09:19:24",test,2,same,z,0,1152.89,keyup
1160605,16,821,"2015-09-09 09:19:24",test,1,same,z,0,4319.54,keyup
1160605,17,821,"2015-09-09 09:19:24",test,1,same,m,1,1391.71,keyup
1160605,18,821,"2015-09-09 09:19:24",test,1,same,m,1,1300.32,keyup
1160605,19,821,"2015-09-09 09:19:24",test,2,same,z,0,1366.75,keyup
1160605,20,821,"2015-09-09 09:19:24",test,1,different,z,1,2637.67,keyup
1160605,21,821,"2015-09-09 09:19:24",test,1,same,m,1,1396.71,keyup
1160605,22,821,"2015-09-09 09:19:24",test,2,different,z,1,373.01,keyup
1160605,23,821,"2015-09-09 09:19:24",test,3,different,z,1,668.16,keyup
1160605,24,821,"2015-09-09 09:19:24",test,4,same,z,0,3902.54,keyup
1160605,25,821,"2015-09-09 09:19:24",test,3,different,z,1,2339.54,keyup
1160605,26,821,"2015-09-09 09:19:24",test,3,same,m,1,653.17,keyup
1160605,27,821,"2015-09-09 09:19:24",test,4,different,z,1,4480.59,keyup
1160605,28,821,"2015-09-09 09:19:24",test,5,different,z,1,722.25,keyup
1160605,29,821,"2015-09-09 09:19:24",test,6,different,z,1,1264.18,keyup
1160605,30,821,"2015-09-09 09:19:24",test,7,same,m,1,735.29,keyup
1160605,31,821,"2015-09-09 09:19:24",test,8,different,z,1,6142.97,keyup
1160605,32,821,"2015-09-09 09:19:24",test,9,different,z,1,1346.59,keyup
1160601,1,907,"2015-09-09 09:18:57",practice,1,same,m,1,3258.84,keyup
1160601,2,907,"2015-09-09 09:18:57",practice,1,different,z,1,2287.12,keyup
1160601,3,907,"2015-09-09 09:18:57",practice,2,same,m,1,1105.11,keyup
1160601,4,907,"2015-09-09 09:18:57",practice,2,different,m,0,1443.59,keyup
1160601,5,907,"2015-09-09 09:18:57",practice,2,different,m,0,2641.56,keyup
1160601,6,907,"2015-09-09 09:18:57",practice,2,same,m,1,1373.63,keyup
1160601,7,907,"2015-09-09 09:18:57",practice,2,same,m,1,670.32,keyup
1160601,8,907,"2015-09-09 09:18:57",practice,2,different,z,1,914.04,keyup
1160601,9,907,"2015-09-09 09:18:57",test,3,different,z,1,912.89,keyup
1160601,10,907,"2015-09-09 09:18:57",test,4,same,z,0,858.10,keyup
1160601,11,907,"2015-09-09 09:18:57",test,3,same,m,1,222.28,keyup
1160601,12,907,"2015-09-09 09:18:57",test,3,different,m,0,2994.88,keyup
1160601,13,907,"2015-09-09 09:18:57",test,2,same,m,1,848.29,keyup
1160601,14,907,"2015-09-09 09:18:57",test,2,different,z,1,1072.72,keyup
1160601,15,907,"2015-09-09 09:18:57",test,3,same,z,0,365.58,keyup
1160601,16,907,"2015-09-09 09:18:57",test,2,same,m,1,1608.56,keyup
1160601,17,907,"2015-09-09 09:18:57",test,2,same,m,1,858.45,keyup
1160601,18,907,"2015-09-09 09:18:57",test,3,same,z,0,825.99,keyup
1160601,19,907,"2015-09-09 09:18:57",test,2,same,m,1,380.77,keyup
1160601,20,907,"2015-09-09 09:18:57",test,2,different,z,1,1585.13,keyup
1160601,21,907,"2015-09-09 09:18:57",test,3,same,z,0,671.86,keyup
1160601,22,907,"2015-09-09 09:18:57",test,2,different,z,1,507.36,keyup
1160601,23,907,"2015-09-09 09:18:57",test,2,different,z,1,777.27,keyup
1160601,24,907,"2015-09-09 09:18:57",test,3,same,z,0,588.93,keyup
1160601,25,907,"2015-09-09 09:18:57",test,2,different,z,1,1882.02,keyup
1160601,26,907,"2015-09-09 09:18:57",test,2,same,m,1,15348.83,keyup
1160601,27,907,"2015-09-09 09:18:57",test,3,different,z,1,399.32,keyup
1160601,28,907,"2015-09-09 09:18:57",test,4,different,z,1,1355.55,keyup
1160601,29,907,"2015-09-09 09:18:57",test,5,different,z,1,1609.22,keyup
1160601,30,907,"2015-09-09 09:18:57",test,6,same,z,0,2111.94,keyup
1160601,31,907,"2015-09-09 09:18:57",test,5,different,z,1,868.46,keyup
1160629,1,713,"2015-09-09 09:22:31",practice,1,same,m,1,19905.06,keyup
1160629,2,713,"2015-09-09 09:22:31",practice,1,different,z,1,3003.71,keyup
1160629,3,713,"2015-09-09 09:22:31",practice,2,same,m,1,4463.68,keyup
1160629,4,713,"2015-09-09 09:22:31",practice,2,different,z,1,1584.68,keyup
1160629,5,713,"2015-09-09 09:22:31",practice,2,different,z,1,1631.49,keyup
1160629,6,713,"2015-09-09 09:22:31",practice,2,same,m,1,39315.55,keyup
1160629,7,713,"2015-09-09 09:22:31",practice,2,same,m,1,135.90,keyup
1160629,8,713,"2015-09-09 09:22:31",practice,2,different,m,0,15732.65,keyup
1160629,9,713,"2015-09-09 09:22:31",test,2,different,z,1,1175.70,keyup
1160629,10,713,"2015-09-09 09:22:31",test,2,same,m,1,544.32,keyup
1160629,11,713,"2015-09-09 09:22:31",test,3,same,z,0,765.89,keyup
1160629,12,713,"2015-09-09 09:22:31",test,2,different,z,1,330.20,keyup
1160629,13,713,"2015-09-09 09:22:31",test,2,same,z,0,8008.71,keyup
1160629,14,713,"2015-09-09 09:22:31",test,1,different,z,1,2551.11,keyup
1160629,15,713,"2015-09-09 09:22:31",test,1,same,z,0,1191.61,keyup
1160629,16,713,"2015-09-09 09:22:31",test,1,same,z,0,146.42,keyup
1160629,17,713,"2015-09-09 09:22:31",test,1,same,z,0,1271.54,keyup
1160629,18,713,"2015-09-09 09:22:31",test,1,same,z,0,86.59,keyup
1160629,19,713,"2015-09-09 09:22:31",test,1,same,z,0,1314.70,keyup
1160629,20,713,"2015-09-09 09:22:31",test,1,different,z,1,184.02,keyup
1160629,21,713,"2015-09-09 09:22:31",test,1,same,z,0,153.71,keyup
1160629,22,713,"2015-09-09 09:22:31",test,1,different,z,1,663.75,keyup
1160629,23,713,"2015-09-09 09:22:31",test,1,different,z,1,5593.20,keyup
1160629,24,713,"2015-09-09 09:22:31",test,2,same,z,0,7192.52,keyup
1160629,25,713,"2015-09-09 09:22:31",test,1,different,z,1,8072.88,keyup
1160629,26,713,"2015-09-09 09:22:31",test,1,same,z,0,4725.27,keyup
1160629,27,713,"2015-09-09 09:22:31",test,1,different,z,1,1421.10,keyup
1160629,28,713,"2015-09-09 09:22:31",test,1,different,z,1,5171.30,keyup
1160629,29,713,"2015-09-09 09:22:31",test,2,different,z,1,1127.57,keyup
1160629,30,713,"2015-09-09 09:22:31",test,3,same,z,0,2058.49,keyup
1160629,31,713,"2015-09-09 09:22:31",test,2,different,z,1,844.77,keyup
1160629,32,713,"2015-09-09 09:22:31",test,2,different,m,0,1544.63,keyup
1160607,1,923,"2015-09-09 09:20:07",practice,1,same,z,0,487.33,keyup
1160607,2,923,"2015-09-09 09:20:07",practice,1,different,z,1,5473.96,keyup
1160607,3,923,"2015-09-09 09:20:07",practice,2,same,m,1,245.63,keyup
1160607,4,923,"2015-09-09 09:20:07",practice,2,different,z,1,8311.75,keyup
1160607,5,923,"2015-09-09 09:20:07",practice,2,different,m,0,4061.72,keyup
1160607,6,923,"2015-09-09 09:20:07",practice,2,same,m,1,88.12,keyup
1160607,7,923,"2015-09-09 09:20:07",practice,2,same,m,1,17571.78,keyup
1160607,8,923,"2015-09-09 09:20:07",practice,2,different,z,1,1553.44,keyup
1160607,9,923,"2015-09-09 09:20:07",test,3,different,m,0,4203.15,keyup
1160607,10,923,"2015-09-09 09:20:07",test,2,same,m,1,1719.83,keyup
1160607,11,923,"2015-09-09 09:20:07",test,2,same,m,1,5332.57,keyup
1160607,12,923,"2015-09-09 09:20:07",test,3,different,m,0,1260.84,keyup
1160607,13,923,"2015-09-09 09:20:07",test,2,same,m,1,2783.66,keyup
1160607,14,923,"2015-09-09 09:20:07",test,2,different,m,0,498.52,keyup
1160607,15,923,"2015-09-09 09:20:07",test,1,same,z,0,13499.78,keyup
1160607,16,923,"2015-09-09 09:20:07",test,1,same,z,0,1365.04,keyup
1160607,17,923,"2015-09-09 09:20:07",test,1,same,z,0,653.28,keyup
1160607,18,923,"2015-09-09 09:20:07",test,1,same,z,0,1356.24,keyup
1160607,19,923,"2015-09-09 09:20:07",test,1,same,z,0,21494.58,keyup
1160607,20,923,"2015-09-09 09:20:07",test,1,different,m,0,1752.82,keyup
1160780,1,730,"2015-09-09 09:59:06",practice,1,same,m,1,2271.55,keyup
1160780,2,730,"2015-09-09 09:59:06",practice,1,different,m,0,23966.91,keyup
1160780,3,730,"2015-09-09 09:59:06",practice,2,same,m,1,237.13,keyup
1160780,4,730,"2015-09-09 09:59:06",practice,2,different,z,1,719.94,keyup
1160780,5,730,"2015-09-09 09:59:06",practice,2,different,m,0,6462.54,keyup
1160780,6,730,"2015-09-09 09:59:06",practice,2,same,m,1,137.60,keyup
1160780,7,730,"2015-09-09 09:59:06",practice,2,same,m,1,2722.50,keyup
1160780,8,730,"2015-09-09 09:59:06",practice,2,different,z,1,121.03,keyup
1160780,9,730,"2015-09-09 09:59:06",test,3,different,m,0,1797.76,keyup
1160780,10,730,"2015-09-09 09:59:06",test,2,same,z,0,30427.63,keyup
1160780,11,730,"2015-09-09 09:59:06",test,1,same,m,1,2193.03,keyup
1160780,12,730,"2015-09-09 09:59:06",test,1,different,m,0,1159.33,keyup
1160780,13,730,"2015-09-09 09:59:06",test,1,same,z,0,2979.43,keyup
1160780,14,730,"2015-09-09 09:59:06",test,1,different,m,0,1153.94,keyup
1160780,15,730,"2015-09-09 09:59:06",test,1,same,z,0,4594.46,keyup
1160780,16,730,"2015-09-09 09:59:06",test,1,same,z,0,1754.21,keyup
1160780,17,730,"2015-09-09 09:59:06",test,1,same,m,1,703.51,keyup
1160780,18,730,"2015-09-09 09:59:06",test,1,same,z,0,1236.95,keyup
1160780,19,730,"2015-09-09 09:59:06",test,1,same,z,0,884.52,keyup
1160780,20,730,"2015-09-09 09:59:06",test,1,different,m,0,18259.29,keyup
1160780,21,730,"2015-09-09 09:59:06",test,1,same,z,0,961.97,keyup
1160780,22,730,"2015-09-09 09:59:06",test,1,different,z,1,4254.59,keyup
1160780,23,730,"2015-09-09 09:59:06",test,1,different,m,0,857.23,keyup
1160780,24,730,"2015-09-09 09:59:06",test,1,same,z,0,15693.93,keyup
1160780,25,730,"2015-09-09 09:59:06",test,1,different,z,1,1115.17,keyup
1160780,26,730,"2015-09-09 09:59:06",test,1,same,z,0,1218.14,keyup
1160780,27,730,"2015-09-09 09:59:06",test,1,different,m,0,1162.92,keyup
1160780,28,730,"2015-09-09 09:59:06",test,1,different,m,0,19384.27,keyup
1160780,29,730,"2015-09-09 09:59:06",test,1,different,m,0,11288.12,keyup
1160780,30,730,"2015-09-09 09:59:06",test,1,same,z,0,10807.61,keyup
1160780,31,730,"2015-09-09 09:59:06",test,1,different,m,0,6621.82,keyup
1160780,32,730,"2015-09-09 09:59:06",test,1,different,z,1,1489.22,keyup
1160781,1,703,"2015-09-09 10:00:24",practice,1,same,m,1,1363.82,keyup
1160781,2,703,"2015-09-09 10:00:24",practice,1,different,z,1,2171.62,keyup
1160781,3,703,"2015-09-09 10:00:24",practice,2,same,m,1,1153.87,keyup
1160781,4,703,"2015-09-09 10:00:24",practice,2,different,z,1,479.68,keyup
1160781,5,703,"2015-09-09 10:00:24",practice,2,different,z,1,1740.09,keyup
1160781,6,703,"2015-09-09 10:00:24",practice,2,same,z,0,135.08,keyup
1160781,7,703,"2015-09-09 10:00:24",practice,2,same,m,1,1058.54,keyup
1160781,8,703,"2015-09-09 10:00:24",practice,2,different,z,1,224.08,keyup
1160781,9,703,"2015-09-09 10:00:24",test,3,different,z,1,881.48,keyup
1160781,10,703,"2015-09-09 10:00:24",test,4,same,z,0,219.86,keyup
1160781,11,703,"2015-09-09 10:00:24",test,3,same,z,0,3464.37,keyup
1160781,12,703,"2015-09-09 10:00:24",test,2,different,m,0,1510.09,keyup
1160781,13,703,"2015-09-09 10:00:24",test,1,same,m,1,2866.35,keyup
1160781,14,703,"2015-09-09 10:00:24",test,1,different,m,0,4368.51,keyup
1160781,15,703,"2015-09-09 10:00:24",test,1,same,m,1,5365.22,keyup
1160781,16,703,"2015-09-09 10:00:24",test,1,same,m,1,1490.02,keyup
1160781,17,703,"2015-09-09 10:00:24",test,2,same,z,0,1148.08,keyup
1160781,18,703,"2015-09-09 10:00:24",test,1,same,z,0,2585.47,keyup
1160781,19,703,"2015-09-09 10:00:24",test,1,same,m,1,1364.48,keyup
1160781,20,703,"2015-09-09 10:00:24",test,1,different,z,1,1610.14,keyup
1160781,21,703,"2015-09-09 10:00:24",test,2,same,m,1,1095.95,keyup
1160781,22,703,"2015-09-09 10:00:24",test,3,different,z,1,1478.37,keyup
1160781,23,703,"2015-09-09 10:00:24",test,4,different,z,1,1326.90,keyup
1160781,24,703,"2015-09-09 10:00:24",test,5,same,m,1,496.73,keyup
1160781,25,703,"2015-09-09 10:00:24",test,6,different,m,0,1068.99,keyup
1160781,26,703,"2015-09-09 10:00:24",test,5,same,z,0,259.64,keyup
1160781,27,703,"2015-09-09 10:00:24",test,4,different,m,0,1855.08,keyup
1160781,28,703,"2015-09-09 10:00:24",test,3,different,z,1,2775.63,keyup
1160781,29,703,"2015-09-09 10:00:24",test,3,different,z,1,2442.98,keyup
1160781,30,703,"2015-09-09 10:00:24",test,4,same,z,0,1546.83,keyup
1160781,31,703,"2015-09-09 10:00:24",test,3,different,z,1,989.24,keyup
1160781,32,703,"2015-09-09 10:00:24",test,3,different,z,1,4121.11,keyup
1160786,1,793,"2015-09-09 10:00:08",practice,1,same,m,1,532.34,keyup
1160786,2,793,"2015-09-09 10:00:08",practice,1,different,z,1,529.57,keyup
1160786,3,793,"2015-09-09 10:00:08",practice,2,same,m,1,120.81,keyup
1160786,4,793,"2015-09-09 10:00:08",practice,2,different,z,1,484.63,keyup
1160786,5,793,"2015-09-09 10:00:08",practice,2,different,z,1,594.95,keyup
1160786,6,793,"2015-09-09 10:00:08",practice,2,same,m,1,824.48,keyup
1160786,7,793,"2015-09-09 10:00:08",practice,2,same,m,1,1942.01,keyup
1160786,8,793,"2015-09-09 10:00:08",practice,2,different,z,1,287.03,keyup
1160786,9,793,"2015-09-09 10:00:08",test,3,different,z,1,1319.36,keyup
1160786,10,793,"2015-09-09 10:00:08",test,4,same,m,1,894.48,keyup
1160786,11,793,"2015-09-09 10:00:08",test,5,same,z,0,5931.20,keyup
1160786,12,793,"2015-09-09 10:00:08",test,4,different,m,0,13460.24,keyup
1160786,13,793,"2015-09-09 10:00:08",test,3,same,z,0,10775.02,keyup
1160786,14,793,"2015-09-09 10:00:08",test,2,different,m,0,3918.55,keyup
1160786,15,793,"2015-09-09 10:00:08",test,1,same,m,1,2782.68,keyup
1160786,16,793,"2015-09-09 10:00:08",test,1,same,m,1,55326.58,keyup
1160786,17,793,"2015-09-09 10:00:08",test,2,same,m,1,1343.48,keyup
1160786,18,793,"2015-09-09 10:00:08",test,3,same,m,1,246.13,keyup
1160786,19,793,"2015-09-09 10:00:08",test,4,same,m,1,1339.64,keyup
1160786,20,793,"2015-09-09 10:00:08",test,5,different,z,1,2065.63,keyup
1160786,21,793,"2015-09-09 10:00:08",test,6,same,m,1,495.20,keyup
1160786,22,793,"2015-09-09 10:00:08",test,7,different,z,1,2907.55,keyup
1160786,23,793,"2015-09-09 10:00:08",test,8,different,z,1,4959.09,keyup
1160762,1,550,"2015-09-09 10:17:18",practice,1,same,m,1,235.31,keyup
1160762,2,550,"2015-09-09 10:17:18",practice,1,different,z,1,1069.06,keyup
1160762,3,550,"2015-09-09 10:17:18",practice,2,same,m,1,1000.69,keyup
1160762,4,550,"2015-09-09 10:17:18",practice,2,different,z,1,8351.44,keyup
1160762,5,550,"2015-09-09 10:17:18",practice,2,different,z,1,1275.45,keyup
1160762,6,550,"2015-09-09 10:17:18",practice,2,same,z,0,1144.40,keyup
1160762,7,550,"2015-09-09 10:17:18",practice,2,same,m,1,526.21,keyup
1160762,8,550,"2015-09-09 10:17:18",practice,2,different,z,1,6347.98,keyup
1160762,9,550,"2015-09-09 10:17:18",test,3,different,z,1,1193.73,keyup
1160762,10,550,"2015-09-09 10:17:18",test,4,same,z,0,652.05,keyup
1160762,11,550,"2015-09-09 10:17:18",test,3,same,m,1,574.28,keyup
1160762,12,550,"2015-09-09 10:17:18",test,3,different,m,0,1373.26,keyup
1160762,13,550,"2015-09-09 10:17:18",test,2,same,m,1,1333.82,keyup
1160762,14,550,"2015-09-09 10:17:18",test,2,different,m,0,1188.28,keyup
1160762,15,550,"2015-09-09 10:17:18",test,1,same,m,1,1159.92,keyup
1160762,16,550,"2015-09-09 10:17:18",test,1,same,z,0,2187.42,keyup
1160762,17,550,"2015-09-09 10:17:18",test,1,same,m,1,1973.67,keyup
1160762,18,550,"2015-09-09 10:17:18",test,1,same,m,1,1372.19,keyup
1160762,19,550,"2015-09-09 10:17:18",test,2,same,m,1,915.77,keyup
1160762,20,550,"2015-09-09 10:17:18",test,3,different,m,0,995.03,keyup
1160762,21,550,"2015-09-09 10:17:18",test,2,same,z,0,1370.63,keyup
1160762,22,550,"2015-09-09 10:17:18",test,1,different,z,1,2070.62,keyup
1160762,23,550,"2015-09-09 10:17:18",test,1,different,z,1,940.95,keyup
1160762,24,550,"2015-09-09 10:17:18",test,2,same,m,1,1332.82,keyup
1160762,25,550,"2015-09-09 10:17:18",test,3,different,m,0,829.22,keyup
1160762,26,550,"2015-09-09 10:17:18",test,2,same,m,1,2227.88,keyup
1160762,27,550,"2015-09-09 10:17:18",test,2,different,m,0,3669.92,keyup
1160762,28,550,"2015-09-09 10:17:18",test,1,different,z,1,2292.64,keyup
1160762,29,550,"2015-09-09 10:17:18",test,1,different,z,1,1444.30,keyup
1160762,30,550,"2015-09-09 10:17:18",test,2,same,m,1,1164.41,keyup
1160762,31,550,"2015-09-09 10:17:18",test,3,different,z,1,1026.22,keyup
1160762,32,550,"2015-09-09 10:17:18",test,4,different,m,0,1047.85,keyup
1160838,1,637,"2015-09-09 10:17:01",practice,1,same,m,1,3767.93,keyup
1160838,2,637,"2015-09-09 10:17:01",practice,1,different,m,0,1824.63,keyup
1160838,3,637,"2015-09-09 10:17:01",practice,2,same,z,0,4473.89,keyup
1160838,4,637,"2015-09-09 10:17:01",practice,2,different,m,0,1220.23,keyup
1160838,5,637,"2015-09-09 10:17:01",practice,2,different,z,1,2501.72,keyup
1160838,6,637,"2015-09-09 10:17:01",practice,2,same,m,1,741.36,keyup
1160838,7,637,"2015-09-09 10:17:01",practice,2,same,m,1,306.03,keyup
1160838,8,637,"2015-09-09 10:17:01",practice,2,different,z,1,1064.69,keyup
1160838,9,637,"2015-09-09 10:17:01",test,3,different,z,1,7442.98,keyup
1160838,10,637,"2015-09-09 10:17:01",test,4,same,z,0,972.37,keyup
1160838,11,637,"2015-09-09 10:17:01",test,3,same,z,0,592.63,keyup
1160838,12,637,"2015-09-09 10:17:01",test,2,different,z,1,4132.17,keyup
1160838,13,637,"2015-09-09 10:17:01",test,2,same,z,0,2764.20,keyup
1160838,14,637,"2015-09-09 10:17:01",test,1,different,z,1,872.32,keyup
1160838,15,637,"2015-09-09 10:17:01",test,1,same,m,1,1254.32,keyup
1160838,16,637,"2015-09-09 10:17:01",test,2,same,m,1,594.71,keyup
1160838,17,637,"2015-09-09 10:17:01",test,3,same,z,0,546.42,keyup
1160838,18,637,"2015-09-09 10:17:01",test,2,same,m,1,556.51,keyup
1160838,19,637,"2015-09-09 10:17:01",test,2,same,m,1,654.80,keyup
1160838,20,637,"2015-09-09 10:17:01",test,3,different,z,1,530.16,keyup
1160838,21,637,"2015-09-09 10:17:01",test,4,same,m,1,509.27,keyup
1160838,22,637,"2015-09-09 10:17:01",test,5,different,z,1,2360.46,keyup
1160838,23,637,"2015-09-09 10:17:01",test,6,different,z,1,467.16,keyup
1160838,24,637,"2015-09-09 10:17:01",test,7,same,z,0,1207.36,keyup
1160838,25,637,"2015-09-09 10:17:01",test,6,different,m,0,2137.04,keyup
1160838,26,637,"2015-09-09 10:17:01",test,5,same,m,1,1894.17,keyup
1160838,27,637,"2015-09-09 10:17:01",test,5,different,z,1,1684.09,keyup
1160838,28,637,"2015-09-09 10:17:01",test,6,different,z,1,865.20,keyup
1160838,29,637,"2015-09-09 10:17:01",test,7,different,z,1,705.63,keyup
1160838,30,637,"2015-09-09 10:17:01",test,8,same,z,0,863.55,keyup
1160838,31,637,"2015-09-09 10:17:01",test,7,different,z,1,837.55,keyup
1160763,1,622,"2015-09-09 10:17:22",practice,1,same,z,0,1210.59,keyup
1160763,2,622,"2015-09-09 10:17:22",practice,1,different,z,1,1103.77,keyup
1160763,3,622,"2015-09-09 10:17:22",practice,2,same,m,1,939.56,keyup
1160763,4,622,"2015-09-09 10:17:22",practice,2,different,z,1,570.66,keyup
1160763,5,622,"2015-09-09 10:17:22",practice,2,different,m,0,1049.10,keyup
1160763,6,622,"2015-09-09 10:17:22",practice,2,same,m,1,564.76,keyup
1160763,7,622,"2015-09-09 10:17:22",practice,2,same,m,1,610.37,keyup
1160763,8,622,"2015-09-09 10:17:22",practice,2,different,z,1,811.73,keyup
1160763,9,622,"2015-09-09 10:17:22",test,3,different,z,1,519.66,keyup
1160763,10,622,"2015-09-09 10:17:22",test,4,same,m,1,443.57,keyup
1160763,11,622,"2015-09-09 10:17:22",test,5,same,m,1,1242.20,keyup
1160763,12,622,"2015-09-09 10:17:22",test,6,different,m,0,834.01,keyup
1160763,13,622,"2015-09-09 10:17:22",test,5,same,m,1,648.32,keyup
1160763,14,622,"2015-09-09 10:17:22",test,5,different,m,0,715.32,keyup
1160763,15,622,"2015-09-09 10:17:22",test,4,same,m,1,885.53,keyup
1160763,16,622,"2015-09-09 10:17:22",test,4,same,m,1,637.45,keyup
1160763,17,622,"2015-09-09 10:17:22",test,5,same,m,1,729.95,keyup
1160763,18,622,"2015-09-09 10:17:22",test,6,same,m,1,476.46,keyup
1160763,19,622,"2015-09-09 10:17:22",test,7,same,m,1,799.92,keyup
1160763,20,622,"2015-09-09 10:17:22",test,8,different,m,0,1764.59,keyup
1160763,21,622,"2015-09-09 10:17:22",test,7,same,m,1,669.95,keyup
1160763,22,622,"2015-09-09 10:17:22",test,7,different,m,0,1110.14,keyup
1160763,23,622,"2015-09-09 10:17:22",test,6,different,m,0,704.04,keyup
1160763,24,622,"2015-09-09 10:17:22",test,5,same,m,1,1618.02,keyup
1160763,25,622,"2015-09-09 10:17:22",test,5,different,m,0,3280.16,keyup
1160763,26,622,"2015-09-09 10:17:22",test,4,same,m,1,1563.33,keyup
1160763,27,622,"2015-09-09 10:17:22",test,4,different,m,0,1993.27,keyup
1160763,28,622,"2015-09-09 10:17:22",test,3,different,m,0,1816.12,keyup
1160763,29,622,"2015-09-09 10:17:22",test,2,different,m,0,1813.05,keyup
1160763,30,622,"2015-09-09 10:17:22",test,1,same,m,1,1561.09,keyup
1160834,1,678,"2015-09-09 10:18:50",practice,1,same,z,0,3125.78,keyup
1160834,2,678,"2015-09-09 10:18:50",practice,1,different,z,1,1972.30,keyup
1160834,3,678,"2015-09-09 10:18:50",practice,2,same,m,1,2429.12,keyup
1160834,4,678,"2015-09-09 10:18:50",practice,2,different,z,1,356.31,keyup
1160834,5,678,"2015-09-09 10:18:50",practice,2,different,z,1,1485.56,keyup
1160834,6,678,"2015-09-09 10:18:50",practice,2,same,z,0,1031.64,keyup
1160834,7,678,"2015-09-09 10:18:50",practice,2,same,m,1,1654.02,keyup
1160834,8,678,"2015-09-09 10:18:50",practice,2,different,z,1,761.40,keyup
1160834,9,678,"2015-09-09 10:18:50",test,3,different,z,1,864.19,keyup
1160834,10,678,"2015-09-09 10:18:50",test,4,same,m,1,31.52,keyup
1160834,11,678,"2015-09-09 10:18:50",test,5,same,m,1,1286.70,keyup
1160834,12,678,"2015-09-09 10:18:50",test,6,different,z,1,866.42,keyup
1160834,13,678,"2015-09-09 10:18:50",test,7,same,z,0,2102.18,keyup
1160834,14,678,"2015-09-09 10:18:50",test,6,different,z,1,11815.51,keyup
1160834,15,678,"2015-09-09 10:18:50",test,6,same,m,1,6264.88,keyup
1160825,1,734,"2015-09-09 10:17:55",practice,1,same,m,1,6934.72,keyup
1160825,2,734,"2015-09-09 10:17:55",practice,1,different,z,1,1647.60,keyup
1160825,3,734,"2015-09-09 10:17:55",practice,2,same,m,1,751.98,keyup
1160825,4,734,"2015-09-09 10:17:55",practice,2,different,m,0,1381.62,keyup
1160825,5,734,"2015-09-09 10:17:55",practice,2,different,z,1,8055.73,keyup
1160825,6,734,"2015-09-09 10:17:55",practice,2,same,z,0,1353.13,keyup
1160825,7,734,"2015-09-09 10:17:55",practice,2,same,m,1,999.89,keyup
1160825,8,734,"2015-09-09 10:17:55",practice,2,different,z,1,1605.27,keyup
1160825,9,734,"2015-09-09 10:17:55",test,3,different,z,1,1021.86,keyup
1160825,10,734,"2015-09-09 10:17:55",test,4,same,z,0,4941.60,keyup
1160825,11,734,"2015-09-09 10:17:55",test,3,same,m,1,8033.92,keyup
1160825,12,734,"2015-09-09 10:17:55",test,3,different,m,0,3018.46,keyup
1160825,13,734,"2015-09-09 10:17:55",test,2,same,z,0,7996.83,keyup
1160825,14,734,"2015-09-09 10:17:55",test,1,different,m,0,9989.34,keyup
1160825,15,734,"2015-09-09 10:17:55",test,1,same,z,0,8206.02,keyup
1160825,16,734,"2015-09-09 10:17:55",test,1,same,m,1,4491.59,keyup
1160825,17,734,"2015-09-09 10:17:55",test,1,same,m,1,1137.14,keyup
1160825,18,734,"2015-09-09 10:17:55",test,2,same,z,0,3228.30,keyup
1160825,19,734,"2015-09-09 10:17:55",test,1,same,m,1,2249.43,keyup
1160825,20,734,"2015-09-09 10:17:55",test,1,different,z,1,1326.73,keyup
1160825,21,734,"2015-09-09 10:17:55",test,2,same,m,1,661.44,keyup
1160825,22,734,"2015-09-09 10:17:55",test,3,different,z,1,1402.96,keyup
1160825,23,734,"2015-09-09 10:17:55",test,4,different,m,0,14478.18,keyup
1160825,24,734,"2015-09-09 10:17:55",test,3,same,m,1,448.91,keyup
1160825,25,734,"2015-09-09 10:17:55",test,3,different,z,1,3947.23,keyup
1160825,26,734,"2015-09-09 10:17:55",test,4,same,m,1,920.30,keyup
1160825,27,734,"2015-09-09 10:17:55",test,5,different,m,0,15391.20,keyup
1160825,28,734,"2015-09-09 10:17:55",test,4,different,m,0,5799.19,keyup
1160825,29,734,"2015-09-09 10:17:55",test,3,different,m,0,1761.08,keyup
1160825,30,734,"2015-09-09 10:17:55",test,2,same,z,0,3255.62,keyup
1160825,31,734,"2015-09-09 10:17:55",test,1,different,m,0,9397.88,keyup
1160825,32,734,"2015-09-09 10:17:55",test,1,different,z,1,1202.79,keyup
1160832,1,723,"2015-09-09 10:18:08",practice,1,same,m,1,1311.96,keyup
1160832,2,723,"2015-09-09 10:18:08",practice,1,different,m,0,1144.77,keyup
1160832,3,723,"2015-09-09 10:18:08",practice,2,same,m,1,1848.02,keyup
1160832,4,723,"2015-09-09 10:18:08",practice,2,different,m,0,6410.28,keyup
1160832,5,723,"2015-09-09 10:18:08",practice,2,different,z,1,2166.44,keyup
1160832,6,723,"2015-09-09 10:18:08",practice,2,same,m,1,1091.17,keyup
1160832,7,723,"2015-09-09 10:18:08",practice,2,same,m,1,1805.63,keyup
1160832,8,723,"2015-09-09 10:18:08",practice,2,different,z,1,975.06,keyup
1160832,9,723,"2015-09-09 10:18:08",test,3,different,z,1,1425.97,keyup
1160832,10,723,"2015-09-09 10:18:08",test,4,same,m,1,2182.98,keyup
1160832,11,723,"2015-09-09 10:18:08",test,5,same,z,0,760.17,keyup
1160832,12,723,"2015-09-09 10:18:08",test,4,different,z,1,4268.39,keyup
1160832,13,723,"2015-09-09 10:18:08",test,4,same,m,1,1184.52,keyup
1160832,14,723,"2015-09-09 10:18:08",test,5,different,m,0,974.16,keyup
1160832,15,723,"2015-09-09 10:18:08",test,4,same,z,0,1899.70,keyup
1160832,16,723,"2015-09-09 10:18:08",test,3,same,z,0,2881.90,keyup
1160832,17,723,"2015-09-09 10:18:08",test,2,same,m,1,3206.75,keyup
1160832,18,723,"2015-09-09 10:18:08",test,2,same,z,0,3876.81,keyup
1160832,19,723,"2015-09-09 10:18:08",test,1,same,m,1,3427.03,keyup
1160832,20,723,"2015-09-09 10:18:08",test,1,different,z,1,4115.30,keyup
1160832,21,723,"2015-09-09 10:18:08",test,2,same,z,0,19852.02,keyup
1160832,22,723,"2015-09-09 10:18:08",test,1,different,z,1,7628.42,keyup
1160832,23,723,"2015-09-09 10:18:08",test,1,different,z,1,1604.21,keyup
1160832,24,723,"2015-09-09 10:18:08",test,2,same,z,0,2739.04,keyup
1160832,25,723,"2015-09-09 10:18:08",test,1,different,z,1,6382.14,keyup
1160832,26,723,"2015-09-09 10:18:08",test,1,same,z,0,2093.94,keyup
1160832,27,723,"2015-09-09 10:18:08",test,1,different,z,1,3653.56,keyup
1160832,28,723,"2015-09-09 10:18:08",test,1,different,z,1,1345.10,keyup
1160832,29,723,"2015-09-09 10:18:08",test,2,different,z,1,631.69,keyup
1160832,30,723,"2015-09-09 10:18:08",test,3,same,m,1,5465.70,keyup
1160832,31,723,"2015-09-09 10:18:08",test,4,different,z,1,2545.52,keyup
1160832,32,723,"2015-09-09 10:18:08",test,5,different,z,1,2950.40,keyup
1160827,1,783,"2015-09-09 10:17:53",practice,1,same,z,0,1604.57,keyup
1160827,2,783,"2015-09-09 10:17:53",practice,1,different,m,0,4.53,keyup
1160827,3,783,"2015-09-09 10:17:53",practice,2,same,z,0,1507.86,keyup
1160827,4,783,"2015-09-09 10:17:53",practice,2,different,m,0,18672.87,keyup
1160827,5,783,"2015-09-09 10:17:53",practice,2,different,m,0,11117.58,keyup
1160827,6,783,"2015-09-09 10:17:53",practice,2,same,m,1,10771.25,keyup
1160827,7,783,"2015-09-09 10:17:53",practice,2,same,m,1,13071.19,keyup
1160827,8,783,"2015-09-09 10:17:53",practice,2,different,m,0,4522.93,keyup
1160827,9,783,"2015-09-09 10:17:53",test,2,different,m,0,309.49,keyup
1160827,10,783,"2015-09-09 10:17:53",test,1,same,m,1,8268.29,keyup
1160827,11,783,"2015-09-09 10:17:53",test,1,same,m,1,1501.37,keyup
1160827,12,783,"2015-09-09 10:17:53",test,2,different,m,0,12807.85,keyup
1160827,13,783,"2015-09-09 10:17:53",test,1,same,z,0,2133.97,keyup
1160827,14,783,"2015-09-09 10:17:53",test,1,different,m,0,282.04,keyup
1160827,15,783,"2015-09-09 10:17:53",test,1,same,m,1,2224.58,keyup
1160827,16,783,"2015-09-09 10:17:53",test,1,same,m,1,13582.38,keyup
1160827,17,783,"2015-09-09 10:17:53",test,2,same,m,1,19413.55,keyup
1160827,18,783,"2015-09-09 10:17:53",test,3,same,m,1,2730.13,keyup
1160827,19,783,"2015-09-09 10:17:53",test,4,same,z,0,784.30,keyup
1160827,20,783,"2015-09-09 10:17:53",test,3,different,m,0,14142.43,keyup
1160827,21,783,"2015-09-09 10:17:53",test,2,same,m,1,245.42,keyup
1160827,22,783,"2015-09-09 10:17:53",test,2,different,z,1,470.15,keyup
1160827,23,783,"2015-09-09 10:17:53",test,3,different,z,1,4097.73,keyup
1160827,24,783,"2015-09-09 10:17:53",test,4,same,m,1,8837.28,keyup
1160827,25,783,"2015-09-09 10:17:53",test,5,different,m,0,146.03,keyup
1160827,26,783,"2015-09-09 10:17:53",test,4,same,m,1,12960.74,keyup
1160827,27,783,"2015-09-09 10:17:53",test,4,different,m,0,8291.50,keyup
1160827,28,783,"2015-09-09 10:17:53",test,3,different,z,1,2438.21,keyup
1160827,29,783,"2015-09-09 10:17:53",test,3,different,m,0,775.32,keyup
1160827,30,783,"2015-09-09 10:17:53",test,2,same,m,1,1172.77,keyup
1160827,31,783,"2015-09-09 10:17:53",test,2,different,m,0,3607.73,keyup
1160827,32,783,"2015-09-09 10:17:53",test,1,different,m,0,236.04,keyup
1160836,1,791,"2015-09-09 10:17:56",practice,1,same,m,1,6664.67,keyup
1160836,2,791,"2015-09-09 10:17:56",practice,1,different,z,1,422.86,keyup
1160836,3,791,"2015-09-09 10:17:56",practice,2,same,m,1,2954.25,keyup
1160836,4,791,"2015-09-09 10:17:56",practice,2,different,z,1,1513.30,keyup
1160836,5,791,"2015-09-09 10:17:56",practice,2,different,z,1,415.61,keyup
1160836,6,791,"2015-09-09 10:17:56",practice,2,same,z,0,1772.69,keyup
1160836,7,791,"2015-09-09 10:17:56",practice,2,same,m,1,603.79,keyup
1160836,8,791,"2015-09-09 10:17:56",practice,2,different,z,1,339.62,keyup
1160836,9,791,"2015-09-09 10:17:56",test,3,different,z,1,3482.88,keyup
1160836,10,791,"2015-09-09 10:17:56",test,4,same,z,0,1392.75,keyup
1160836,11,791,"2015-09-09 10:17:56",test,3,same,m,1,87.15,keyup
1160836,12,791,"2015-09-09 10:17:56",test,3,different,z,1,1171.39,keyup
1160836,13,791,"2015-09-09 10:17:56",test,4,same,m,1,598.13,keyup
1160836,14,791,"2015-09-09 10:17:56",test,5,different,z,1,949.53,keyup
1160836,15,791,"2015-09-09 10:17:56",test,6,same,m,1,1473.36,keyup
1160836,16,791,"2015-09-09 10:17:56",test,7,same,z,0,843.18,keyup
1160836,17,791,"2015-09-09 10:17:56",test,6,same,z,0,192.54,keyup
1160836,18,791,"2015-09-09 10:17:56",test,5,same,m,1,219.99,keyup
1160836,19,791,"2015-09-09 10:17:56",test,5,same,z,0,1400.51,keyup
1160836,20,791,"2015-09-09 10:17:56",test,4,different,z,1,1874.76,keyup
1160836,21,791,"2015-09-09 10:17:56",test,4,same,m,1,3503.08,keyup
1160836,22,791,"2015-09-09 10:17:56",test,5,different,z,1,1293.43,keyup
1160836,23,791,"2015-09-09 10:17:56",test,6,different,z,1,1283.45,keyup
1160836,24,791,"2015-09-09 10:17:56",test,7,same,m,1,3668.67,keyup
1160836,25,791,"2015-09-09 10:17:56",test,8,different,z,1,1899.75,keyup
1160836,26,791,"2015-09-09 10:17:56",test,9,same,z,0,1639.68,keyup
1160836,27,791,"2015-09-09 10:17:56",test,8,different,m,0,854.50,keyup
1160836,28,791,"2015-09-09 10:17:56",test,7,different,z,1,1957.34,keyup
1160836,29,791,"2015-09-09 10:17:56",test,7,different,z,1,4950.52,keyup
1160836,30,791,"2015-09-09 10:17:56",test,8,same,m,1,3082.22,keyup
1160836,31,791,"2015-09-09 10:17:56",test,9,different,m,0,880.22,keyup
1160836,32,791,"2015-09-09 10:17:56",test,8,different,z,1,1286.75,keyup
1160903,1,598,"2015-09-09 10:55:12",practice,1,same,m,1,661.18,keyup
1160903,2,598,"2015-09-09 10:55:12",practice,1,different,z,1,221.39,keyup
1160903,3,598,"2015-09-09 10:55:12",practice,2,same,m,1,1038.53,keyup
1160903,4,598,"2015-09-09 10:55:12",practice,2,different,z,1,126.36,keyup
1160903,5,598,"2015-09-09 10:55:12",practice,2,different,z,1,829.29,keyup
1160903,6,598,"2015-09-09 10:55:12",practice,2,same,m,1,208.35,keyup
1160903,7,598,"2015-09-09 10:55:12",practice,2,same,m,1,515.82,keyup
1160903,8,598,"2015-09-09 10:55:12",practice,2,different,z,1,718.75,keyup
1160903,9,598,"2015-09-09 10:55:12",test,3,different,z,1,509.99,keyup
1160903,10,598,"2015-09-09 10:55:12",test,4,same,z,0,2321.11,keyup
1160903,11,598,"2015-09-09 10:55:12",test,3,same,m,1,442.78,keyup
1160903,12,598,"2015-09-09 10:55:12",test,3,different,z,1,661.31,keyup
1160903,13,598,"2015-09-09 10:55:12",test,4,same,z,0,1325.40,keyup
1160903,14,598,"2015-09-09 10:55:12",test,3,different,z,1,692.06,keyup
1160903,15,598,"2015-09-09 10:55:12",test,3,same,m,1,533.85,keyup
1160903,16,598,"2015-09-09 10:55:12",test,4,same,m,1,1371.45,keyup
1160903,17,598,"2015-09-09 10:55:12",test,5,same,z,0,749.14,keyup
1160903,18,598,"2015-09-09 10:55:12",test,4,same,m,1,778.90,keyup
1160903,19,598,"2015-09-09 10:55:12",test,4,same,m,1,784.33,keyup
1160903,20,598,"2015-09-09 10:55:12",test,5,different,z,1,523.76,keyup
1160903,21,598,"2015-09-09 10:55:12",test,6,same,z,0,1592.80,keyup
1160903,22,598,"2015-09-09 10:55:12",test,5,different,m,0,612.05,keyup
1160903,23,598,"2015-09-09 10:55:12",test,4,different,m,0,1567.18,keyup
1160903,24,598,"2015-09-09 10:55:12",test,3,same,m,1,807.40,keyup
1160903,25,598,"2015-09-09 10:55:12",test,3,different,z,1,2305.29,keyup
1160903,26,598,"2015-09-09 10:55:12",test,4,same,z,0,1492.78,keyup
1160903,27,598,"2015-09-09 10:55:12",test,3,different,z,1,2463.70,keyup
1160903,28,598,"2015-09-09 10:55:12",test,3,different,z,1,1969.49,keyup
1160903,29,598,"2015-09-09 10:55:12",test,4,different,z,1,1224.32,keyup
1160903,30,598,"2015-09-09 10:55:12",test,5,same,z,0,2458.30,keyup
1160903,31,598,"2015-09-09 10:55:12",test,4,different,z,1,1427.96,keyup
1160903,32,598,"2015-09-09 10:55:12",test,4,different,z,1,1108.49,keyup
1160904,1,709,"2015-09-09 10:55:20",practice,1,same,m,1,3056.89,keyup
1160904,2,709,"2015-09-09 10:55:20",practice,1,different,z,1,101.79,keyup
1160904,3,709,"2015-09-09 10:55:20",practice,2,same,m,1,1990.54,keyup
1160904,4,709,"2015-09-09 10:55:20",practice,2,different,z,1,301.02,keyup
1160904,5,709,"2015-09-09 10:55:20",practice,2,different,z,1,478.49,keyup
1160904,6,709,"2015-09-09 10:55:20",practice,2,same,m,1,704.55,keyup
1160904,7,709,"2015-09-09 10:55:20",practice,2,same,m,1,1620.01,keyup
1160904,8,709,"2015-09-09 10:55:20",practice,2,different,z,1,1433.74,keyup
1160904,9,709,"2015-09-09 10:55:20",test,3,different,z,1,988.88,keyup
1160904,10,709,"2015-09-09 10:55:20",test,4,same,z,0,824.91,keyup
1160904,11,709,"2015-09-09 10:55:20",test,3,same,m,1,526.50,keyup
1160904,12,709,"2015-09-09 10:55:20",test,3,different,z,1,1301.25,keyup
1160904,13,709,"2015-09-09 10:55:20",test,4,same,m,1,827.10,keyup
1160904,14,709,"2015-09-09 10:55:20",test,5,different,z,1,1672.96,keyup
1160904,15,709,"2015-09-09 10:55:20",test,6,same,z,0,696.63,keyup
1160904,16,709,"2015-09-09 10:55:20",test,5,same,z,0,1635.45,keyup
1160904,17,709,"2015-09-09 10:55:20",test,4,same,z,0,1079.34,keyup
1160904,18,709,"2015-09-09 10:55:20",test,3,same,m,1,632.09,keyup
1160904,19,709,"2015-09-09 10:55:20",test,3,same,m,1,339.83,keyup
1160904,20,709,"2015-09-09 10:55:20",test,4,different,z,1,1118.53,keyup
1160904,21,709,"2015-09-09 10:55:20",test,5,same,z,0,519.13,keyup
1160904,22,709,"2015-09-09 10:55:20",test,4,different,z,1,921.29,keyup
1160904,23,709,"2015-09-09 10:55:20",test,4,different,z,1,2218.00,keyup
1160904,24,709,"2015-09-09 10:55:20",test,5,same,z,0,4472.13,keyup
1160904,25,709,"2015-09-09 10:55:20",test,4,different,z,1,988.12,keyup
1160904,26,709,"2015-09-09 10:55:20",test,4,same,z,0,2143.57,keyup
1160904,27,709,"2015-09-09 10:55:20",test,3,different,z,1,1138.46,keyup
1160904,28,709,"2015-09-09 10:55:20",test,3,different,z,1,1359.10,keyup
1160904,29,709,"2015-09-09 10:55:20",test,4,different,z,1,6274.05,keyup
1160904,30,709,"2015-09-09 10:55:20",test,5,same,z,0,1707.23,keyup
1160904,31,709,"2015-09-09 10:55:20",test,4,different,z,1,3677.56,keyup
1160904,32,709,"2015-09-09 10:55:20",test,4,different,z,1,1306.13,keyup
1160898,1,766,"2015-09-09 10:54:34",practice,1,same,m,1,499.38,keyup
1160898,2,766,"2015-09-09 10:54:34",practice,1,different,z,1,750.29,keyup
1160898,3,766,"2015-09-09 10:54:34",practice,2,same,m,1,504.19,keyup
1160898,4,766,"2015-09-09 10:54:34",practice,2,different,z,1,741.55,keyup
1160898,5,766,"2015-09-09 10:54:34",practice,2,different,m,0,3596.09,keyup
1160898,6,766,"2015-09-09 10:54:34",practice,2,same,m,1,860.68,keyup
1160898,7,766,"2015-09-09 10:54:34",practice,2,same,m,1,764.90,keyup
1160898,8,766,"2015-09-09 10:54:34",practice,2,different,z,1,1716.02,keyup
1160898,9,766,"2015-09-09 10:54:34",test,3,different,z,1,1487.61,keyup
1160898,10,766,"2015-09-09 10:54:34",test,4,same,m,1,3025.19,keyup
1160898,11,766,"2015-09-09 10:54:34",test,5,same,z,0,12424.65,keyup
1160898,12,766,"2015-09-09 10:54:34",test,4,different,z,1,744.43,keyup
1160898,13,766,"2015-09-09 10:54:34",test,4,same,m,1,723.56,keyup
1160898,14,766,"2015-09-09 10:54:34",test,5,different,m,0,762.39,keyup
1160898,15,766,"2015-09-09 10:54:34",test,4,same,m,1,782.66,keyup
1160898,16,766,"2015-09-09 10:54:34",test,4,same,m,1,1804.37,keyup
1160898,17,766,"2015-09-09 10:54:34",test,5,same,m,1,2253.30,keyup
1160898,18,766,"2015-09-09 10:54:34",test,6,same,z,0,893.20,keyup
1160898,19,766,"2015-09-09 10:54:34",test,5,same,m,1,3476.37,keyup
1160898,20,766,"2015-09-09 10:54:34",test,5,different,m,0,908.78,keyup
1160898,21,766,"2015-09-09 10:54:34",test,4,same,z,0,1324.97,keyup
1160898,22,766,"2015-09-09 10:54:34",test,3,different,m,0,1662.39,keyup
1160898,23,766,"2015-09-09 10:54:34",test,2,different,z,1,2180.42,keyup
1160898,24,766,"2015-09-09 10:54:34",test,2,same,m,1,1290.89,keyup
1160898,25,766,"2015-09-09 10:54:34",test,3,different,z,1,1507.75,keyup
1160898,26,766,"2015-09-09 10:54:34",test,4,same,m,1,401.69,keyup
1160898,27,766,"2015-09-09 10:54:34",test,5,different,z,1,4944.64,keyup
1160898,28,766,"2015-09-09 10:54:34",test,6,different,z,1,1713.12,keyup
1160898,29,766,"2015-09-09 10:54:34",test,7,different,z,1,1342.29,keyup
1160898,30,766,"2015-09-09 10:54:34",test,8,same,m,1,744.71,keyup
1160898,31,766,"2015-09-09 10:54:34",test,9,different,m,0,1251.31,keyup
1160898,32,766,"2015-09-09 10:54:34",test,8,different,m,0,3074.06,keyup
1160912,1,725,"2015-09-09 10:55:36",practice,1,same,m,1,1556.20,keyup
1160912,2,725,"2015-09-09 10:55:36",practice,1,different,z,1,612.98,keyup
1160912,3,725,"2015-09-09 10:55:36",practice,2,same,m,1,152.05,keyup
1160912,4,725,"2015-09-09 10:55:36",practice,2,different,z,1,4372.31,keyup
1160912,5,725,"2015-09-09 10:55:36",practice,2,different,z,1,655.03,keyup
1160912,6,725,"2015-09-09 10:55:36",practice,2,same,m,1,2437.10,keyup
1160912,7,725,"2015-09-09 10:55:36",practice,2,same,m,1,144.74,keyup
1160912,8,725,"2015-09-09 10:55:36",practice,2,different,z,1,983.40,keyup
1160912,9,725,"2015-09-09 10:55:36",test,3,different,z,1,772.22,keyup
1160912,10,725,"2015-09-09 10:55:36",test,4,same,m,1,564.12,keyup
1160912,11,725,"2015-09-09 10:55:36",test,5,same,m,1,320.63,keyup
1160912,12,725,"2015-09-09 10:55:36",test,6,different,z,1,76.85,keyup
1160912,13,725,"2015-09-09 10:55:36",test,7,same,m,1,4562.84,keyup
1160912,14,725,"2015-09-09 10:55:36",test,8,different,z,1,3578.38,keyup
1160912,15,725,"2015-09-09 10:55:36",test,9,same,z,0,1508.56,keyup
1160912,16,725,"2015-09-09 10:55:36",test,8,same,z,0,1926.69,keyup
1160912,17,725,"2015-09-09 10:55:36",test,7,same,m,1,55.82,keyup
1160912,18,725,"2015-09-09 10:55:36",test,7,same,z,0,6263.33,keyup
1160912,19,725,"2015-09-09 10:55:36",test,6,same,m,1,3360.06,keyup
1160912,20,725,"2015-09-09 10:55:36",test,6,different,z,1,1302.22,keyup
1160912,21,725,"2015-09-09 10:55:36",test,7,same,m,1,38.27,keyup
1160912,22,725,"2015-09-09 10:55:36",test,8,different,z,1,16948.54,keyup
1160912,23,725,"2015-09-09 10:55:36",test,9,different,m,0,558.05,keyup
1160912,24,725,"2015-09-09 10:55:36",test,8,same,z,0,1301.04,keyup
1160912,25,725,"2015-09-09 10:55:36",test,7,different,m,0,1321.67,keyup
1160912,26,725,"2015-09-09 10:55:36",test,6,same,z,0,1282.01,keyup
1160912,27,725,"2015-09-09 10:55:36",test,5,different,z,1,4400.13,keyup
1160912,28,725,"2015-09-09 10:55:36",test,5,different,m,0,4525.22,keyup
1160912,29,725,"2015-09-09 10:55:36",test,4,different,m,0,2094.48,keyup
1160928,1,563,"2015-09-09 10:58:52",practice,1,same,m,1,541.15,keyup
1160928,2,563,"2015-09-09 10:58:52",practice,1,different,z,1,865.86,keyup
1160928,3,563,"2015-09-09 10:58:52",practice,2,same,m,1,7559.31,keyup
1160928,4,563,"2015-09-09 10:58:52",practice,2,different,z,1,557.20,keyup
1160928,5,563,"2015-09-09 10:58:52",practice,2,different,z,1,585.40,keyup
1160928,6,563,"2015-09-09 10:58:52",practice,2,same,m,1,487.70,keyup
1160928,7,563,"2015-09-09 10:58:52",practice,2,same,m,1,446.57,keyup
1160928,8,563,"2015-09-09 10:58:52",practice,2,different,z,1,517.80,keyup
1160928,9,563,"2015-09-09 10:58:52",test,3,different,z,1,1737.33,keyup
1160928,10,563,"2015-09-09 10:58:52",test,4,same,z,0,3329.83,keyup
1160928,11,563,"2015-09-09 10:58:52",test,3,same,m,1,612.21,keyup
1160928,12,563,"2015-09-09 10:58:52",test,3,different,z,1,977.54,keyup
1160928,13,563,"2015-09-09 10:58:52",test,4,same,m,1,1206.41,keyup
1160928,14,563,"2015-09-09 10:58:52",test,5,different,m,0,1771.49,keyup
1160928,15,563,"2015-09-09 10:58:52",test,4,same,z,0,880.74,keyup
1160928,16,563,"2015-09-09 10:58:52",test,3,same,z,0,1604.10,keyup
1160928,17,563,"2015-09-09 10:58:52",test,2,same,z,0,1188.86,keyup
1160928,18,563,"2015-09-09 10:58:52",test,1,same,m,1,1831.02,keyup
1160928,19,563,"2015-09-09 10:58:52",test,1,same,z,0,2493.03,keyup
1160928,20,563,"2015-09-09 10:58:52",test,1,different,m,0,961.78,keyup
1160928,21,563,"2015-09-09 10:58:52",test,1,same,z,0,1284.99,keyup
1160928,22,563,"2015-09-09 10:58:52",test,1,different,m,0,1631.33,keyup
1160928,23,563,"2015-09-09 10:58:52",test,1,different,m,0,1236.29,keyup
1160928,24,563,"2015-09-09 10:58:52",test,1,same,m,1,359.41,keyup
1160928,25,563,"2015-09-09 10:58:52",test,1,different,z,1,1035.48,keyup
1160928,26,563,"2015-09-09 10:58:52",test,2,same,m,1,369.09,keyup
1160928,27,563,"2015-09-09 10:58:52",test,3,different,z,1,380.10,keyup
1160928,28,563,"2015-09-09 10:58:52",test,4,different,z,1,705.22,keyup
1160928,29,563,"2015-09-09 10:58:52",test,5,different,z,1,519.08,keyup
1160928,30,563,"2015-09-09 10:58:52",test,6,same,m,1,1273.26,keyup
1160928,31,563,"2015-09-09 10:58:52",test,7,different,m,0,1247.08,keyup
1160928,32,563,"2015-09-09 10:58:52",test,6,different,z,1,1737.29,keyup
1160914,1,455,"2015-09-09 11:00:43",practice,1,same,m,1,1140.92,keyup
1160914,2,455,"2015-09-09 11:00:43",practice,1,different,z,1,2145.51,keyup
1160914,3,455,"2015-09-09 11:00:43",practice,2,same,m,1,151.88,keyup
1160914,4,455,"2015-09-09 11:00:43",practice,2,different,m,0,518.95,keyup
1160914,5,455,"2015-09-09 11:00:43",practice,2,different,z,1,1753.01,keyup
1160914,6,455,"2015-09-09 11:00:43",practice,2,same,m,1,616.73,keyup
1160914,7,455,"2015-09-09 11:00:43",practice,2,same,m,1,343.44,keyup
1160914,8,455,"2015-09-09 11:00:43",practice,2,different,z,1,2896.45,keyup
1160914,9,455,"2015-09-09 11:00:43",test,3,different,z,1,825.91,keyup
1160914,10,455,"2015-09-09 11:00:43",test,4,same,z,0,36.49,keyup
1160914,11,455,"2015-09-09 11:00:43",test,3,same,m,1,566.60,keyup
1160914,12,455,"2015-09-09 11:00:43",test,3,different,m,0,2243.19,keyup
1160914,13,455,"2015-09-09 11:00:43",test,2,same,m,1,345.91,keyup
1160914,14,455,"2015-09-09 11:00:43",test,2,different,m,0,1344.85,keyup
1160914,15,455,"2015-09-09 11:00:43",test,1,same,z,0,4563.69,keyup
1160914,16,455,"2015-09-09 11:00:43",test,1,same,m,1,1396.11,keyup
1160914,17,455,"2015-09-09 11:00:43",test,1,same,m,1,383.50,keyup
1160914,18,455,"2015-09-09 11:00:43",test,2,same,m,1,973.55,keyup
1160914,19,455,"2015-09-09 11:00:43",test,3,same,z,0,679.09,keyup
1160914,20,455,"2015-09-09 11:00:43",test,2,different,z,1,4598.01,keyup
1160914,21,455,"2015-09-09 11:00:43",test,2,same,z,0,3163.55,keyup
1160914,22,455,"2015-09-09 11:00:43",test,1,different,m,0,5757.65,keyup
1160914,23,455,"2015-09-09 11:00:43",test,1,different,m,0,1673.20,keyup
1160914,24,455,"2015-09-09 11:00:43",test,1,same,m,1,2287.54,keyup
1160914,25,455,"2015-09-09 11:00:43",test,1,different,m,0,1945.64,keyup
1160914,26,455,"2015-09-09 11:00:43",test,1,same,m,1,1072.96,keyup
1160914,27,455,"2015-09-09 11:00:43",test,1,different,m,0,1286.88,keyup
1160914,28,455,"2015-09-09 11:00:43",test,1,different,z,1,4129.65,keyup
1160914,29,455,"2015-09-09 11:00:43",test,1,different,z,1,3385.79,keyup
1160914,30,455,"2015-09-09 11:00:43",test,2,same,m,1,2541.00,keyup
1160914,31,455,"2015-09-09 11:00:43",test,3,different,m,0,1536.57,keyup
1160914,32,455,"2015-09-09 11:00:43",test,2,different,z,1,2050.60,keyup
1160927,1,652,"2015-09-09 10:58:34",practice,1,same,m,1,6269.47,keyup
1160927,2,652,"2015-09-09 10:58:34",practice,1,different,z,1,1725.82,keyup
1160927,3,652,"2015-09-09 10:58:34",practice,2,same,m,1,1575.55,keyup
1160927,4,652,"2015-09-09 10:58:34",practice,2,different,z,1,871.96,keyup
1160927,5,652,"2015-09-09 10:58:34",practice,2,different,z,1,1340.66,keyup
1160927,6,652,"2015-09-09 10:58:34",practice,2,same,m,1,1863.11,keyup
1160927,7,652,"2015-09-09 10:58:34",practice,2,same,z,0,947.97,keyup
1160927,8,652,"2015-09-09 10:58:34",practice,2,different,z,1,6046.41,keyup
1160927,9,652,"2015-09-09 10:58:34",test,3,different,z,1,1652.81,keyup
1160927,10,652,"2015-09-09 10:58:34",test,4,same,m,1,717.44,keyup
1160927,11,652,"2015-09-09 10:58:34",test,5,same,z,0,1722.88,keyup
1160927,12,652,"2015-09-09 10:58:34",test,4,different,z,1,1390.07,keyup
1160927,13,652,"2015-09-09 10:58:34",test,4,same,m,1,846.09,keyup
1160927,14,652,"2015-09-09 10:58:34",test,5,different,z,1,2535.49,keyup
1160927,15,652,"2015-09-09 10:58:34",test,6,same,z,0,3316.75,keyup
1160927,16,652,"2015-09-09 10:58:34",test,5,same,z,0,2888.95,keyup
1160927,17,652,"2015-09-09 10:58:34",test,4,same,m,1,600.14,keyup
1160927,18,652,"2015-09-09 10:58:34",test,4,same,z,0,1329.92,keyup
1160927,19,652,"2015-09-09 10:58:34",test,3,same,m,1,1383.76,keyup
1160927,20,652,"2015-09-09 10:58:34",test,3,different,z,1,3449.21,keyup
1160927,21,652,"2015-09-09 10:58:34",test,4,same,z,0,532.04,keyup
1160927,22,652,"2015-09-09 10:58:34",test,3,different,z,1,2000.89,keyup
1160927,23,652,"2015-09-09 10:58:34",test,3,different,z,1,1964.55,keyup
1160927,24,652,"2015-09-09 10:58:34",test,4,same,z,0,10532.40,keyup
1160927,25,652,"2015-09-09 10:58:34",test,3,different,z,1,1568.78,keyup
1160927,26,652,"2015-09-09 10:58:34",test,3,same,z,0,1829.85,keyup
1160927,27,652,"2015-09-09 10:58:34",test,2,different,z,1,1888.67,keyup
1160927,28,652,"2015-09-09 10:58:34",test,2,different,z,1,7098.61,keyup
1160927,29,652,"2015-09-09 10:58:34",test,3,different,z,1,2061.67,keyup
1160927,30,652,"2015-09-09 10:58:34",test,4,same,z,0,3086.06,keyup
1160927,31,652,"2015-09-09 10:58:34",test,3,different,m,0,3518.78,keyup
1160927,32,652,"2015-09-09 10:58:34",test,2,different,z,1,1383.71,keyup
1160925,1,711,"2015-09-09 10:58:10",practice,1,same,z,0,3063.75,keyup
1160925,2,711,"2015-09-09 10:58:10",practice,1,different,z,1,1610.10,keyup
1160925,3,711,"2015-09-09 10:58:10",practice,2,same,m,1,885.56,keyup
1160925,4,711,"2015-09-09 10:58:10",practice,2,different,z,1,5086.40,keyup
1160925,5,711,"2015-09-09 10:58:10",practice,2,different,z,1,1415.37,keyup
1160925,6,711,"2015-09-09 10:58:10",practice,2,same,m,1,560.19,keyup
1160925,7,711,"2015-09-09 10:58:10",practice,2,same,m,1,449.65,keyup
1160925,8,711,"2015-09-09 10:58:10",practice,2,different,z,1,769.73,keyup
1160925,9,711,"2015-09-09 10:58:10",test,3,different,z,1,651.28,keyup
1160925,10,711,"2015-09-09 10:58:10",test,4,same,z,0,965.81,keyup
1160925,11,711,"2015-09-09 10:58:10",test,3,same,m,1,473.43,keyup
1160925,12,711,"2015-09-09 10:58:10",test,3,different,z,1,509.21,keyup
1160925,13,711,"2015-09-09 10:58:10",test,4,same,z,0,618.83,keyup
1160925,14,711,"2015-09-09 10:58:10",test,3,different,z,1,803.74,keyup
1160925,15,711,"2015-09-09 10:58:10",test,3,same,z,0,999.27,keyup
1160925,16,711,"2015-09-09 10:58:10",test,2,same,z,0,717.74,keyup
1160925,17,711,"2015-09-09 10:58:10",test,1,same,m,1,1366.01,keyup
1160925,18,711,"2015-09-09 10:58:10",test,1,same,m,1,500.23,keyup
1160925,19,711,"2015-09-09 10:58:10",test,2,same,m,1,698.58,keyup
1160925,20,711,"2015-09-09 10:58:10",test,3,different,z,1,90.95,keyup
1160925,21,711,"2015-09-09 10:58:10",test,4,same,m,1,397.82,keyup
1160925,22,711,"2015-09-09 10:58:10",test,5,different,z,1,155.81,keyup
1160925,23,711,"2015-09-09 10:58:10",test,6,different,z,1,993.50,keyup
1160925,24,711,"2015-09-09 10:58:10",test,7,same,z,0,193.01,keyup
1160925,25,711,"2015-09-09 10:58:10",test,6,different,z,1,60.73,keyup
1160925,26,711,"2015-09-09 10:58:10",test,6,same,z,0,1666.09,keyup
1160925,27,711,"2015-09-09 10:58:10",test,5,different,z,1,2203.99,keyup
1160925,28,711,"2015-09-09 10:58:10",test,5,different,z,1,5000.49,keyup
1160925,29,711,"2015-09-09 10:58:10",test,6,different,z,1,28.40,keyup
1160925,30,711,"2015-09-09 10:58:10",test,7,same,m,1,15799.11,keyup
1160925,31,711,"2015-09-09 10:58:10",test,8,different,m,0,1007.63,keyup
1160925,32,711,"2015-09-09 10:58:10",test,7,different,m,0,153.05,keyup
1160933,1,611,"2015-09-09 11:00:34",practice,1,same,m,1,2219.29,keyup
1160933,2,611,"2015-09-09 11:00:34",practice,1,different,z,1,613.44,keyup
1160933,3,611,"2015-09-09 11:00:34",practice,2,same,m,1,1025.26,keyup
1160933,4,611,"2015-09-09 11:00:34",practice,2,different,z,1,4754.63,keyup
1160933,5,611,"2015-09-09 11:00:34",practice,2,different,z,1,1759.21,keyup
1160933,6,611,"2015-09-09 11:00:34",practice,2,same,m,1,1323.26,keyup
1160933,7,611,"2015-09-09 11:00:34",practice,2,same,m,1,512.62,keyup
1160933,8,611,"2015-09-09 11:00:34",practice,2,different,z,1,1210.45,keyup
1160933,9,611,"2015-09-09 11:00:34",test,3,different,m,0,831.41,keyup
1160933,10,611,"2015-09-09 11:00:34",test,2,same,m,1,856.22,keyup
1160933,11,611,"2015-09-09 11:00:34",test,2,same,m,1,1211.47,keyup
1160933,12,611,"2015-09-09 11:00:34",test,3,different,z,1,1620.49,keyup
1160933,13,611,"2015-09-09 11:00:34",test,4,same,m,1,2762.50,keyup
1160933,14,611,"2015-09-09 11:00:34",test,5,different,z,1,1442.39,keyup
1160933,15,611,"2015-09-09 11:00:34",test,6,same,z,0,2436.74,keyup
1160933,16,611,"2015-09-09 11:00:34",test,5,same,m,1,763.32,keyup
1160933,17,611,"2015-09-09 11:00:34",test,5,same,z,0,1008.54,keyup
1160933,18,611,"2015-09-09 11:00:34",test,4,same,m,1,653.38,keyup
1160933,19,611,"2015-09-09 11:00:34",test,4,same,z,0,1645.94,keyup
1160933,20,611,"2015-09-09 11:00:34",test,3,different,m,0,2172.04,keyup
1160933,21,611,"2015-09-09 11:00:34",test,2,same,m,1,1742.22,keyup
1160933,22,611,"2015-09-09 11:00:34",test,2,different,z,1,675.52,keyup
1160933,23,611,"2015-09-09 11:00:34",test,3,different,z,1,853.14,keyup
1160933,24,611,"2015-09-09 11:00:34",test,4,same,z,0,1329.65,keyup
1160933,25,611,"2015-09-09 11:00:34",test,3,different,z,1,1304.00,keyup
1160933,26,611,"2015-09-09 11:00:34",test,3,same,m,1,1929.98,keyup
1160933,27,611,"2015-09-09 11:00:34",test,4,different,z,1,1510.13,keyup
1160933,28,611,"2015-09-09 11:00:34",test,5,different,z,1,1911.64,keyup
1160933,29,611,"2015-09-09 11:00:34",test,6,different,z,1,812.45,keyup
1160933,30,611,"2015-09-09 11:00:34",test,7,same,z,0,5669.45,keyup
1160933,31,611,"2015-09-09 11:00:34",test,6,different,z,1,1656.21,keyup
1160933,32,611,"2015-09-09 11:00:34",test,6,different,z,1,1958.99,keyup
1160926,1,708,"2015-09-09 11:00:52",practice,1,same,m,1,1908.15,keyup
1160926,2,708,"2015-09-09 11:00:52",practice,1,different,z,1,1230.65,keyup
1160926,3,708,"2015-09-09 11:00:52",practice,2,same,m,1,841.27,keyup
1160926,4,708,"2015-09-09 11:00:52",practice,2,different,z,1,3539.39,keyup
1160926,5,708,"2015-09-09 11:00:52",practice,2,different,z,1,1036.34,keyup
1160926,6,708,"2015-09-09 11:00:52",practice,2,same,m,1,822.00,keyup
