sitting_id,trial,duration,start_time,type,stim,correct,rt,accuracy,responseAssign,percentageImageN,trialLength,rtCall
1153940,1,253,"2015-09-02 13:02:33",2,images/city6.png,1,1581,1,2,62.5,2416,6
1153940,2,253,"2015-09-02 13:02:33",2,images/city7.png,1,1468,1,2,56.25,2416,3
1153940,3,253,"2015-09-02 13:02:33",2,images/city8.png,1,1275,1,2,50,2415,3
1153940,4,253,"2015-09-02 13:02:33",2,images/mountain6.png,0,0,1,0,0,2413,NA
1153940,5,253,"2015-09-02 13:02:33",2,images/mountain7.png,0,0,1,0,0,2415,NA
1153940,6,253,"2015-09-02 13:02:33",2,images/mountain8.png,0,0,1,0,0,2418,NA
1153940,7,253,"2015-09-02 13:02:33",2,images/city9.png,1,1606,1,2,62.5,2417,6
1153940,8,253,"2015-09-02 13:02:33",2,images/mountain9.png,0,0,1,0,0,2413,NA
1153940,9,253,"2015-09-02 13:02:33",2,images/city10.png,1,1176,1,2,43.75,2413,6
1153940,10,253,"2015-09-02 13:02:33",2,images/mountain10.png,0,1595,-1,2,62.5,2417,3
1153940,11,253,"2015-09-02 13:02:33",2,images/scrambled.png,0,NA,NA,NA,NA,NA,NA
1153940,12,253,"2015-09-02 13:02:33",2,images/city1.png,1,1194,1,2,93.75,1218,2
1153940,13,253,"2015-09-02 13:02:33",2,images/city2.png,1,1216,1,1,0,1216,1
1153940,14,253,"2015-09-02 13:02:33",2,images/city3.png,1,1208,1,2,93.75,1216,2
1153940,15,253,"2015-09-02 13:02:33",2,images/mountain1.png,0,0,1,0,0,1218,NA
1153940,16,253,"2015-09-02 13:02:33",2,images/mountain2.png,0,0,1,0,0,1215,NA
1153940,17,253,"2015-09-02 13:02:33",2,images/mountain3.png,0,0,1,0,0,1217,NA
1153940,18,253,"2015-09-02 13:02:33",2,images/city4.png,1,1086,1,2,87.5,1215,2
1153940,19,253,"2015-09-02 13:02:33",2,images/mountain4.png,0,0,1,0,0,1218,NA
1153940,20,253,"2015-09-02 13:02:33",2,images/city5.png,1,1005,1,2,81.25,1216,2
1153940,21,253,"2015-09-02 13:02:33",2,images/mountain5.png,0,0,1,0,0,1216,NA
1153940,22,253,"2015-09-02 13:02:33",2,images/city6.png,1,1028,1,2,81.25,1216,2
1153940,23,253,"2015-09-02 13:02:33",2,images/city7.png,1,995,1,2,81.25,1216,2
1153940,24,253,"2015-09-02 13:02:33",2,images/city8.png,1,851,1,2,68.75,1215,3
1153940,25,253,"2015-09-02 13:02:33",2,images/mountain6.png,0,0,1,0,0,1216,NA
1153940,26,253,"2015-09-02 13:02:33",2,images/mountain7.png,0,0,1,0,0,1216,NA
1153940,27,253,"2015-09-02 13:02:33",2,images/mountain8.png,0,0,1,0,0,1217,NA
1153940,28,253,"2015-09-02 13:02:33",2,images/city9.png,1,1251,1,1,0,1216,1
1153940,29,253,"2015-09-02 13:02:33",2,images/mountain9.png,0,1194,-1,2,93.75,1215,2
1153940,30,253,"2015-09-02 13:02:33",2,images/city10.png,1,994,1,2,81.25,1218,2
1153940,31,253,"2015-09-02 13:02:33",2,images/mountain10.png,0,1008,-1,2,81.25,1214,2
1153940,32,253,"2015-09-02 13:02:33",2,images/scrambled.png,2,NA,NA,NA,NA,NA,NA
1153940,33,253,"2015-09-02 13:02:33",1,images/mountain2.png,0,0,1,0,0,1216,NA
1153940,34,253,"2015-09-02 13:02:33",1,images/city5.png,1,1035,1,2,81.25,1217,2
1153940,35,253,"2015-09-02 13:02:33",1,images/city1.png,1,897,1,2,68.75,1216,3
1153940,36,253,"2015-09-02 13:02:33",1,images/city9.png,1,952,1,2,75,1219,3
1153940,37,253,"2015-09-02 13:02:33",1,images/city3.png,1,861,1,2,68.75,1213,3
1153940,38,253,"2015-09-02 13:02:33",1,images/city2.png,1,911,1,2,68.75,1216,3
1153940,39,253,"2015-09-02 13:02:33",1,images/city1.png,1,943,1,2,75,1219,3
1153940,40,253,"2015-09-02 13:02:33",1,images/city8.png,1,988,1,2,75,1215,3
1153940,41,253,"2015-09-02 13:02:33",1,images/city1.png,1,1061,1,2,81.25,1218,2
1153940,42,253,"2015-09-02 13:02:33",1,images/city7.png,1,1042,1,2,81.25,1216,2
1153940,43,253,"2015-09-02 13:02:33",1,images/city4.png,1,1050,1,2,81.25,1216,2
1153940,44,253,"2015-09-02 13:02:33",1,images/city10.png,1,1098,1,2,87.5,1216,2
1153940,45,253,"2015-09-02 13:02:33",1,images/city6.png,1,1106,1,2,87.5,1215,2
1153940,46,253,"2015-09-02 13:02:33",1,images/city8.png,1,1059,1,2,81.25,1218,2
1153940,47,253,"2015-09-02 13:02:33",1,images/city3.png,1,1008,1,2,81.25,1218,2
1153940,48,253,"2015-09-02 13:02:33",1,images/mountain2.png,0,1045,-1,2,81.25,1219,2
1153940,49,253,"2015-09-02 13:02:33",1,images/mountain5.png,0,1009,-1,2,81.25,1216,2
1153940,50,253,"2015-09-02 13:02:33",1,images/city10.png,1,936,1,2,75,1213,3
1153940,51,253,"2015-09-02 13:02:33",1,images/city1.png,1,0,0,0,0,1216,NA
1153940,52,253,"2015-09-02 13:02:33",1,images/city10.png,1,0,0,0,0,1214,NA
1153940,53,253,"2015-09-02 13:02:33",1,images/city1.png,1,0,0,0,0,1215,NA
1153940,54,253,"2015-09-02 13:02:33",1,images/city2.png,1,0,0,0,0,1217,NA
1153940,55,253,"2015-09-02 13:02:33",1,images/city9.png,1,0,0,0,0,1216,NA
1153940,56,253,"2015-09-02 13:02:33",1,images/city10.png,1,0,0,0,0,1216,NA
1153940,57,253,"2015-09-02 13:02:33",1,images/city9.png,1,0,0,0,0,1215,NA
1153940,58,253,"2015-09-02 13:02:33",1,images/city5.png,1,0,0,0,0,1216,NA
1153940,59,253,"2015-09-02 13:02:33",1,images/city6.png,1,0,0,0,0,1216,NA
1153940,60,253,"2015-09-02 13:02:33",1,images/city3.png,1,0,0,0,0,1215,NA
1153940,61,253,"2015-09-02 13:02:33",1,images/city7.png,1,0,0,0,0,1216,NA
1153940,62,253,"2015-09-02 13:02:33",1,images/city1.png,1,0,0,0,0,1214,NA
1153940,63,253,"2015-09-02 13:02:33",1,images/city5.png,1,0,0,0,0,1215,NA
1153940,64,253,"2015-09-02 13:02:33",1,images/mountain3.png,0,0,1,0,0,1215,NA
1153940,65,253,"2015-09-02 13:02:33",1,images/city7.png,1,0,0,0,0,1217,NA
1153940,66,253,"2015-09-02 13:02:33",1,images/city10.png,1,0,0,0,0,1215,NA
1153940,67,253,"2015-09-02 13:02:33",1,images/city3.png,1,0,0,0,0,1215,NA
1153940,68,253,"2015-09-02 13:02:33",1,images/city4.png,1,0,0,0,0,1216,NA
1153940,69,253,"2015-09-02 13:02:33",1,images/city5.png,1,0,0,0,0,1215,NA
1153940,70,253,"2015-09-02 13:02:33",1,images/city3.png,1,0,0,0,0,1216,NA
1153940,71,253,"2015-09-02 13:02:33",1,images/city9.png,1,0,0,0,0,1214,NA
1153940,72,253,"2015-09-02 13:02:33",1,images/city1.png,1,0,0,0,0,1216,NA
1153940,73,253,"2015-09-02 13:02:33",1,images/city6.png,1,0,0,0,0,1215,NA
1153940,74,253,"2015-09-02 13:02:33",1,images/mountain1.png,0,0,1,0,0,1214,NA
1153940,75,253,"2015-09-02 13:02:33",1,images/city7.png,1,0,0,0,0,1216,NA
1153940,76,253,"2015-09-02 13:02:33",1,images/city6.png,1,0,0,0,0,1214,NA
1153940,77,253,"2015-09-02 13:02:33",1,images/city10.png,1,0,0,0,0,1216,NA
1153940,78,253,"2015-09-02 13:02:33",1,images/city7.png,1,0,0,0,0,1219,NA
1153940,79,253,"2015-09-02 13:02:33",1,images/city6.png,1,0,0,0,0,1215,NA
1153940,80,253,"2015-09-02 13:02:33",1,images/mountain1.png,0,0,1,0,0,1214,NA
1153940,81,253,"2015-09-02 13:02:33",1,images/city9.png,1,0,0,0,0,1215,NA
1153940,82,253,"2015-09-02 13:02:33",1,images/city6.png,1,0,0,0,0,1217,NA
1153940,83,253,"2015-09-02 13:02:33",1,images/city3.png,1,0,0,0,0,1217,NA
1153940,84,253,"2015-09-02 13:02:33",1,images/city2.png,1,0,0,0,0,1216,NA
1153940,85,253,"2015-09-02 13:02:33",1,images/city10.png,1,0,0,0,0,1217,NA
1153940,86,253,"2015-09-02 13:02:33",1,images/city1.png,1,0,0,0,0,1218,NA
1153940,87,253,"2015-09-02 13:02:33",1,images/city10.png,1,0,0,0,0,1216,NA
1153940,88,253,"2015-09-02 13:02:33",1,images/city9.png,1,0,0,0,0,1215,NA
1153940,89,253,"2015-09-02 13:02:33",1,images/city3.png,1,0,0,0,0,1215,NA
1153940,90,253,"2015-09-02 13:02:33",1,images/city5.png,1,0,0,0,0,1215,NA
1153940,91,253,"2015-09-02 13:02:33",1,images/mountain9.png,0,0,1,0,0,1215,NA
1153940,92,253,"2015-09-02 13:02:33",1,images/city2.png,1,0,0,0,0,1216,NA
1153940,93,253,"2015-09-02 13:02:33",1,images/city3.png,1,0,0,0,0,1216,NA
1153940,94,253,"2015-09-02 13:02:33",1,images/city10.png,1,0,0,0,0,1215,NA
1153940,95,253,"2015-09-02 13:02:33",1,images/city8.png,1,0,0,0,0,1217,NA
1153940,96,253,"2015-09-02 13:02:33",1,images/city2.png,1,0,0,0,0,1216,NA
1153940,97,253,"2015-09-02 13:02:33",1,images/city6.png,1,0,0,0,0,1212,NA
1153940,98,253,"2015-09-02 13:02:33",1,images/city5.png,1,0,0,0,0,1215,NA
1153940,99,253,"2015-09-02 13:02:33",1,images/city6.png,1,0,0,0,0,1215,NA
1153940,100,253,"2015-09-02 13:02:33",1,images/city1.png,1,0,0,0,0,1215,NA
1153940,101,253,"2015-09-02 13:02:33",1,images/city10.png,1,0,0,0,0,1217,NA
1153940,102,253,"2015-09-02 13:02:33",1,images/city1.png,1,0,0,0,0,1218,NA
1153940,103,253,"2015-09-02 13:02:33",1,images/city6.png,1,0,0,0,0,1216,NA
1153940,104,253,"2015-09-02 13:02:33",1,images/city9.png,1,0,0,0,0,1216,NA
1153940,105,253,"2015-09-02 13:02:33",1,images/city10.png,1,0,0,0,0,1212,NA
1153940,106,253,"2015-09-02 13:02:33",1,images/city1.png,1,0,0,0,0,1216,NA
1153940,107,253,"2015-09-02 13:02:33",1,images/city5.png,1,0,0,0,0,1214,NA
1153940,108,253,"2015-09-02 13:02:33",1,images/city1.png,1,0,0,0,0,1214,NA
1153940,109,253,"2015-09-02 13:02:33",1,images/city7.png,1,0,0,0,0,1218,NA
1153940,110,253,"2015-09-02 13:02:33",1,images/city10.png,1,0,0,0,0,1216,NA
1153940,111,253,"2015-09-02 13:02:33",1,images/city8.png,1,0,0,0,0,1216,NA
1153940,112,253,"2015-09-02 13:02:33",1,images/city7.png,1,0,0,0,0,1217,NA
1153940,113,253,"2015-09-02 13:02:33",1,images/city9.png,1,0,0,0,0,1216,NA
1153940,114,253,"2015-09-02 13:02:33",1,images/city6.png,1,0,0,0,0,1215,NA
1153940,115,253,"2015-09-02 13:02:33",1,images/city4.png,1,0,0,0,0,1215,NA
1153940,116,253,"2015-09-02 13:02:33",1,images/city7.png,1,0,0,0,0,1214,NA
1153940,117,253,"2015-09-02 13:02:33",1,images/city3.png,1,0,0,0,0,1216,NA
1153940,118,253,"2015-09-02 13:02:33",1,images/city7.png,1,0,0,0,0,1218,NA
1153940,119,253,"2015-09-02 13:02:33",1,images/city8.png,1,0,0,0,0,1216,NA
1153940,120,253,"2015-09-02 13:02:33",1,images/mountain9.png,0,0,1,0,0,1213,NA
1153940,121,253,"2015-09-02 13:02:33",1,images/city2.png,1,0,0,0,0,1214,NA
1153940,122,253,"2015-09-02 13:02:33",1,images/city6.png,1,0,0,0,0,1214,NA
1153940,123,253,"2015-09-02 13:02:33",1,images/city4.png,1,0,0,0,0,1214,NA
1153940,124,253,"2015-09-02 13:02:33",1,images/city6.png,1,0,0,0,0,1215,NA
1153940,125,253,"2015-09-02 13:02:33",1,images/city3.png,1,0,0,0,0,1214,NA
1153940,126,253,"2015-09-02 13:02:33",1,images/city4.png,1,0,0,0,0,1215,NA
1153940,127,253,"2015-09-02 13:02:33",1,images/city8.png,1,0,0,0,0,1214,NA
1153940,128,253,"2015-09-02 13:02:33",1,images/city9.png,1,0,0,0,0,1215,NA
1153940,129,253,"2015-09-02 13:02:33",1,images/mountain9.png,0,0,1,0,0,1219,NA
1153940,130,253,"2015-09-02 13:02:33",1,images/city3.png,1,0,0,0,0,1216,NA
1153940,131,253,"2015-09-02 13:02:33",1,images/city1.png,1,0,0,0,0,1217,NA
1153940,132,253,"2015-09-02 13:02:33",1,images/city4.png,1,0,0,0,0,1216,NA
1153940,133,253,"2015-09-02 13:02:33",1,images/city8.png,1,NA,NA,NA,NA,NA,NA
1153940,134,253,"2015-09-02 13:02:33",1,images/city5.png,1,NA,NA,NA,NA,NA,NA
1153940,135,253,"2015-09-02 13:02:33",1,images/city3.png,1,NA,NA,NA,NA,NA,NA
1153940,136,253,"2015-09-02 13:02:33",1,images/city6.png,1,NA,NA,NA,NA,NA,NA
1153940,137,253,"2015-09-02 13:02:33",1,images/city9.png,1,NA,NA,NA,NA,NA,NA
1153940,138,253,"2015-09-02 13:02:33",1,images/city4.png,1,NA,NA,NA,NA,NA,NA
1153940,139,253,"2015-09-02 13:02:33",1,images/mountain6.png,0,NA,NA,NA,NA,NA,NA
1153940,140,253,"2015-09-02 13:02:33",1,images/city4.png,1,NA,NA,NA,NA,NA,NA
1153940,141,253,"2015-09-02 13:02:33",1,images/mountain1.png,0,NA,NA,NA,NA,NA,NA
1153940,142,253,"2015-09-02 13:02:33",1,images/city4.png,1,NA,NA,NA,NA,NA,NA
1153940,143,253,"2015-09-02 13:02:33",1,images/city3.png,1,NA,NA,NA,NA,NA,NA
1153940,144,253,"2015-09-02 13:02:33",1,images/mountain9.png,0,NA,NA,NA,NA,NA,NA
1153940,145,253,"2015-09-02 13:02:33",1,images/city8.png,1,NA,NA,NA,NA,NA,NA
1153940,146,253,"2015-09-02 13:02:33",1,images/mountain1.png,0,NA,NA,NA,NA,NA,NA
1153940,147,253,"2015-09-02 13:02:33",1,images/city3.png,1,NA,NA,NA,NA,NA,NA
1153940,148,253,"2015-09-02 13:02:33",1,images/city8.png,1,NA,NA,NA,NA,NA,NA
1153940,149,253,"2015-09-02 13:02:33",1,images/city5.png,1,NA,NA,NA,NA,NA,NA
1153940,150,253,"2015-09-02 13:02:33",1,images/city7.png,1,NA,NA,NA,NA,NA,NA
1153940,151,253,"2015-09-02 13:02:33",1,images/city10.png,1,NA,NA,NA,NA,NA,NA
1153940,152,253,"2015-09-02 13:02:33",1,images/city1.png,1,NA,NA,NA,NA,NA,NA
1153940,153,253,"2015-09-02 13:02:33",1,images/city5.png,1,NA,NA,NA,NA,NA,NA
1153940,154,253,"2015-09-02 13:02:33",1,images/city9.png,1,NA,NA,NA,NA,NA,NA
1153940,155,253,"2015-09-02 13:02:33",1,images/city2.png,1,NA,NA,NA,NA,NA,NA
1153940,156,253,"2015-09-02 13:02:33",1,images/city5.png,1,NA,NA,NA,NA,NA,NA
1153940,157,253,"2015-09-02 13:02:33",1,images/city7.png,1,NA,NA,NA,NA,NA,NA
1153940,158,253,"2015-09-02 13:02:33",1,images/city6.png,1,NA,NA,NA,NA,NA,NA
1153940,159,253,"2015-09-02 13:02:33",1,images/city5.png,1,NA,NA,NA,NA,NA,NA
1153940,160,253,"2015-09-02 13:02:33",1,images/city6.png,1,NA,NA,NA,NA,NA,NA
1153940,161,253,"2015-09-02 13:02:33",1,images/city1.png,1,NA,NA,NA,NA,NA,NA
1153940,162,253,"2015-09-02 13:02:33",1,images/city9.png,1,NA,NA,NA,NA,NA,NA
1153940,163,253,"2015-09-02 13:02:33",1,images/city8.png,1,NA,NA,NA,NA,NA,NA
1153940,164,253,"2015-09-02 13:02:33",1,images/mountain3.png,0,NA,NA,NA,NA,NA,NA
1153940,165,253,"2015-09-02 13:02:33",1,images/mountain4.png,0,NA,NA,NA,NA,NA,NA
1153940,166,253,"2015-09-02 13:02:33",1,images/city1.png,1,NA,NA,NA,NA,NA,NA
1153940,167,253,"2015-09-02 13:02:33",1,images/city10.png,1,NA,NA,NA,NA,NA,NA
1153940,168,253,"2015-09-02 13:02:33",1,images/city7.png,1,NA,NA,NA,NA,NA,NA
1153940,169,253,"2015-09-02 13:02:33",1,images/city2.png,1,NA,NA,NA,NA,NA,NA
1153940,170,253,"2015-09-02 13:02:33",1,images/city8.png,1,NA,NA,NA,NA,NA,NA
1153940,171,253,"2015-09-02 13:02:33",1,images/city5.png,1,NA,NA,NA,NA,NA,NA
1153940,172,253,"2015-09-02 13:02:33",1,images/mountain9.png,0,NA,NA,NA,NA,NA,NA
1153940,173,253,"2015-09-02 13:02:33",1,images/city10.png,1,NA,NA,NA,NA,NA,NA
1153940,174,253,"2015-09-02 13:02:33",1,images/city8.png,1,NA,NA,NA,NA,NA,NA
1153940,175,253,"2015-09-02 13:02:33",1,images/mountain5.png,0,NA,NA,NA,NA,NA,NA
1153940,176,253,"2015-09-02 13:02:33",1,images/city7.png,1,NA,NA,NA,NA,NA,NA
1153940,177,253,"2015-09-02 13:02:33",1,images/city8.png,1,NA,NA,NA,NA,NA,NA
1153940,178,253,"2015-09-02 13:02:33",1,images/city10.png,1,NA,NA,NA,NA,NA,NA
1153940,179,253,"2015-09-02 13:02:33",1,images/city1.png,1,NA,NA,NA,NA,NA,NA
1153940,180,253,"2015-09-02 13:02:33",1,images/city5.png,1,NA,NA,NA,NA,NA,NA
1153940,181,253,"2015-09-02 13:02:33",1,images/city6.png,1,NA,NA,NA,NA,NA,NA
1153940,182,253,"2015-09-02 13:02:33",1,images/city8.png,1,NA,NA,NA,NA,NA,NA
1153940,183,253,"2015-09-02 13:02:33",1,images/city4.png,1,NA,NA,NA,NA,NA,NA
1153940,184,253,"2015-09-02 13:02:33",1,images/city10.png,1,NA,NA,NA,NA,NA,NA
1153940,185,253,"2015-09-02 13:02:33",1,images/mountain7.png,0,NA,NA,NA,NA,NA,NA
1153940,186,253,"2015-09-02 13:02:33",1,images/city7.png,1,NA,NA,NA,NA,NA,NA
1153940,187,253,"2015-09-02 13:02:33",1,images/city8.png,1,NA,NA,NA,NA,NA,NA
1153940,188,253,"2015-09-02 13:02:33",1,images/city10.png,1,NA,NA,NA,NA,NA,NA
1153940,189,253,"2015-09-02 13:02:33",1,images/city9.png,1,NA,NA,NA,NA,NA,NA
1153940,190,253,"2015-09-02 13:02:33",1,images/city7.png,1,NA,NA,NA,NA,NA,NA
1153940,191,253,"2015-09-02 13:02:33",1,images/city9.png,1,NA,NA,NA,NA,NA,NA
1153940,192,253,"2015-09-02 13:02:33",1,images/city6.png,1,NA,NA,NA,NA,NA,NA
1153940,193,253,"2015-09-02 13:02:33",1,images/mountain5.png,0,NA,NA,NA,NA,NA,NA
1153940,194,253,"2015-09-02 13:02:33",1,images/city2.png,1,NA,NA,NA,NA,NA,NA
1153940,195,253,"2015-09-02 13:02:33",1,images/city8.png,1,NA,NA,NA,NA,NA,NA
1153940,196,253,"2015-09-02 13:02:33",1,images/city9.png,1,NA,NA,NA,NA,NA,NA
1153940,197,253,"2015-09-02 13:02:33",1,images/city2.png,1,NA,NA,NA,NA,NA,NA
1153940,198,253,"2015-09-02 13:02:33",1,images/city7.png,1,NA,NA,NA,NA,NA,NA
1153940,199,253,"2015-09-02 13:02:33",1,images/mountain7.png,0,NA,NA,NA,NA,NA,NA
1153940,200,253,"2015-09-02 13:02:33",1,images/city8.png,1,NA,NA,NA,NA,NA,NA
1153940,201,253,"2015-09-02 13:02:33",1,images/city10.png,1,NA,NA,NA,NA,NA,NA
1153940,202,253,"2015-09-02 13:02:33",1,images/city9.png,1,NA,NA,NA,NA,NA,NA
1153940,203,253,"2015-09-02 13:02:33",1,images/city10.png,1,NA,NA,NA,NA,NA,NA
1153940,204,253,"2015-09-02 13:02:33",1,images/city9.png,1,NA,NA,NA,NA,NA,NA
1153940,205,253,"2015-09-02 13:02:33",1,images/city6.png,1,NA,NA,NA,NA,NA,NA
1153940,206,253,"2015-09-02 13:02:33",1,images/city9.png,1,NA,NA,NA,NA,NA,NA
1153940,207,253,"2015-09-02 13:02:33",1,images/city1.png,1,NA,NA,NA,NA,NA,NA
1153940,208,253,"2015-09-02 13:02:33",1,images/city2.png,1,NA,NA,NA,NA,NA,NA
1153940,209,253,"2015-09-02 13:02:33",1,images/city4.png,1,NA,NA,NA,NA,NA,NA
1153940,210,253,"2015-09-02 13:02:33",1,images/city8.png,1,NA,NA,NA,NA,NA,NA
1153940,211,253,"2015-09-02 13:02:33",1,images/city10.png,1,NA,NA,NA,NA,NA,NA
1153940,212,253,"2015-09-02 13:02:33",1,images/city6.png,1,NA,NA,NA,NA,NA,NA
1153940,213,253,"2015-09-02 13:02:33",1,images/city8.png,1,NA,NA,NA,NA,NA,NA
1153940,214,253,"2015-09-02 13:02:33",1,images/city4.png,1,NA,NA,NA,NA,NA,NA
1153940,215,253,"2015-09-02 13:02:33",1,images/city9.png,1,NA,NA,NA,NA,NA,NA
1153940,216,253,"2015-09-02 13:02:33",1,images/city2.png,1,NA,NA,NA,NA,NA,NA
1153940,217,253,"2015-09-02 13:02:33",1,images/city7.png,1,NA,NA,NA,NA,NA,NA
1153940,218,253,"2015-09-02 13:02:33",1,images/city2.png,1,NA,NA,NA,NA,NA,NA
1153940,219,253,"2015-09-02 13:02:33",1,images/city5.png,1,NA,NA,NA,NA,NA,NA
1153940,220,253,"2015-09-02 13:02:33",1,images/city1.png,1,NA,NA,NA,NA,NA,NA
1153940,221,253,"2015-09-02 13:02:33",1,images/city9.png,1,NA,NA,NA,NA,NA,NA
1153940,222,253,"2015-09-02 13:02:33",1,images/city2.png,1,NA,NA,NA,NA,NA,NA
1153940,223,253,"2015-09-02 13:02:33",1,images/city7.png,1,NA,NA,NA,NA,NA,NA
1153940,224,253,"2015-09-02 13:02:33",1,images/city5.png,1,NA,NA,NA,NA,NA,NA
1153940,225,253,"2015-09-02 13:02:33",1,images/city10.png,1,NA,NA,NA,NA,NA,NA
1153940,226,253,"2015-09-02 13:02:33",1,images/city8.png,1,NA,NA,NA,NA,NA,NA
1153940,227,253,"2015-09-02 13:02:33",1,images/mountain8.png,0,NA,NA,NA,NA,NA,NA
1153940,228,253,"2015-09-02 13:02:33",1,images/city8.png,1,NA,NA,NA,NA,NA,NA
1153940,229,253,"2015-09-02 13:02:33",1,images/city1.png,1,NA,NA,NA,NA,NA,NA
1153940,230,253,"2015-09-02 13:02:33",1,images/city10.png,1,NA,NA,NA,NA,NA,NA
1153940,231,253,"2015-09-02 13:02:33",1,images/city3.png,1,NA,NA,NA,NA,NA,NA
1153940,232,253,"2015-09-02 13:02:33",1,images/city7.png,1,NA,NA,NA,NA,NA,NA
1153940,233,253,"2015-09-02 13:02:33",1,images/city6.png,1,NA,NA,NA,NA,NA,NA
1153940,234,253,"2015-09-02 13:02:33",1,images/city7.png,1,NA,NA,NA,NA,NA,NA
1153940,235,253,"2015-09-02 13:02:33",1,images/city1.png,1,NA,NA,NA,NA,NA,NA
1153940,236,253,"2015-09-02 13:02:33",1,images/city8.png,1,NA,NA,NA,NA,NA,NA
1153940,237,253,"2015-09-02 13:02:33",1,images/city4.png,1,NA,NA,NA,NA,NA,NA
1153940,238,253,"2015-09-02 13:02:33",1,images/city9.png,1,NA,NA,NA,NA,NA,NA
1153940,239,253,"2015-09-02 13:02:33",1,images/city2.png,1,NA,NA,NA,NA,NA,NA
1153940,240,253,"2015-09-02 13:02:33",1,images/city4.png,1,NA,NA,NA,NA,NA,NA
1153940,241,253,"2015-09-02 13:02:33",1,images/city8.png,1,NA,NA,NA,NA,NA,NA
1153940,242,253,"2015-09-02 13:02:33",1,images/city4.png,1,NA,NA,NA,NA,NA,NA
1153940,243,253,"2015-09-02 13:02:33",1,images/mountain2.png,0,NA,NA,NA,NA,NA,NA
1153940,244,253,"2015-09-02 13:02:33",1,images/city9.png,1,NA,NA,NA,NA,NA,NA
1153940,245,253,"2015-09-02 13:02:33",1,images/city10.png,1,NA,NA,NA,NA,NA,NA
1153940,246,253,"2015-09-02 13:02:33",1,images/city5.png,1,NA,NA,NA,NA,NA,NA
1153940,247,253,"2015-09-02 13:02:33",1,images/city9.png,1,NA,NA,NA,NA,NA,NA
1153940,248,253,"2015-09-02 13:02:33",1,images/city1.png,1,NA,NA,NA,NA,NA,NA
1153940,249,253,"2015-09-02 13:02:33",1,images/city4.png,1,NA,NA,NA,NA,NA,NA
1153940,250,253,"2015-09-02 13:02:33",1,images/mountain7.png,0,NA,NA,NA,NA,NA,NA
1153940,251,253,"2015-09-02 13:02:33",1,images/city6.png,1,NA,NA,NA,NA,NA,NA
1153940,252,253,"2015-09-02 13:02:33",1,images/city8.png,1,NA,NA,NA,NA,NA,NA
1153940,253,253,"2015-09-02 13:02:33",1,images/mountain7.png,0,NA,NA,NA,NA,NA,NA
1153940,254,253,"2015-09-02 13:02:33",1,images/city3.png,1,NA,NA,NA,NA,NA,NA
1153940,255,253,"2015-09-02 13:02:33",1,images/city2.png,1,NA,NA,NA,NA,NA,NA
1153940,256,253,"2015-09-02 13:02:33",1,images/city9.png,1,NA,NA,NA,NA,NA,NA
1153940,257,253,"2015-09-02 13:02:33",1,images/mountain4.png,0,NA,NA,NA,NA,NA,NA
1153940,258,253,"2015-09-02 13:02:33",1,images/city10.png,1,NA,NA,NA,NA,NA,NA
1153940,259,253,"2015-09-02 13:02:33",1,images/city3.png,1,NA,NA,NA,NA,NA,NA
1153940,260,253,"2015-09-02 13:02:33",1,images/mountain1.png,0,NA,NA,NA,NA,NA,NA
1153940,261,253,"2015-09-02 13:02:33",1,images/city2.png,1,NA,NA,NA,NA,NA,NA
1153940,262,253,"2015-09-02 13:02:33",1,images/mountain4.png,0,NA,NA,NA,NA,NA,NA
1153940,263,253,"2015-09-02 13:02:33",1,images/city7.png,1,NA,NA,NA,NA,NA,NA
1153940,264,253,"2015-09-02 13:02:33",1,images/city8.png,1,NA,NA,NA,NA,NA,NA
1153940,265,253,"2015-09-02 13:02:33",1,images/city4.png,1,NA,NA,NA,NA,NA,NA
1153940,266,253,"2015-09-02 13:02:33",1,images/city3.png,1,NA,NA,NA,NA,NA,NA
1153940,267,253,"2015-09-02 13:02:33",1,images/city6.png,1,NA,NA,NA,NA,NA,NA
1153940,268,253,"2015-09-02 13:02:33",1,images/city4.png,1,NA,NA,NA,NA,NA,NA
1153940,269,253,"2015-09-02 13:02:33",1,images/city5.png,1,NA,NA,NA,NA,NA,NA
1153940,270,253,"2015-09-02 13:02:33",1,images/city3.png,1,NA,NA,NA,NA,NA,NA
1153940,271,253,"2015-09-02 13:02:33",1,images/city6.png,1,NA,NA,NA,NA,NA,NA
1153940,272,253,"2015-09-02 13:02:33",1,images/city2.png,1,NA,NA,NA,NA,NA,NA
1153940,273,253,"2015-09-02 13:02:33",1,images/city6.png,1,NA,NA,NA,NA,NA,NA
1153940,274,253,"2015-09-02 13:02:33",1,images/city4.png,1,NA,NA,NA,NA,NA,NA
1153940,275,253,"2015-09-02 13:02:33",1,images/city3.png,1,NA,NA,NA,NA,NA,NA
1153940,276,253,"2015-09-02 13:02:33",1,images/mountain8.png,0,NA,NA,NA,NA,NA,NA
1153940,277,253,"2015-09-02 13:02:33",1,images/mountain9.png,0,NA,NA,NA,NA,NA,NA
1153940,278,253,"2015-09-02 13:02:33",1,images/city10.png,1,NA,NA,NA,NA,NA,NA
1153940,279,253,"2015-09-02 13:02:33",1,images/city8.png,1,NA,NA,NA,NA,NA,NA
1153940,280,253,"2015-09-02 13:02:33",1,images/city10.png,1,NA,NA,NA,NA,NA,NA
1153940,281,253,"2015-09-02 13:02:33",1,images/city9.png,1,NA,NA,NA,NA,NA,NA
1153940,282,253,"2015-09-02 13:02:33",1,images/city10.png,1,NA,NA,NA,NA,NA,NA
1153940,283,253,"2015-09-02 13:02:33",1,images/city1.png,1,NA,NA,NA,NA,NA,NA
1153940,284,253,"2015-09-02 13:02:33",1,images/city5.png,1,NA,NA,NA,NA,NA,NA
1153940,285,253,"2015-09-02 13:02:33",1,images/city1.png,1,NA,NA,NA,NA,NA,NA
1153940,286,253,"2015-09-02 13:02:33",1,images/city10.png,1,NA,NA,NA,NA,NA,NA
1153940,287,253,"2015-09-02 13:02:33",1,images/city2.png,1,NA,NA,NA,NA,NA,NA
1153940,288,253,"2015-09-02 13:02:33",1,images/city3.png,1,NA,NA,NA,NA,NA,NA
1153940,289,253,"2015-09-02 13:02:33",1,images/city4.png,1,NA,NA,NA,NA,NA,NA
1153940,290,253,"2015-09-02 13:02:33",1,images/city2.png,1,NA,NA,NA,NA,NA,NA
1153940,291,253,"2015-09-02 13:02:33",1,images/mountain10.png,0,NA,NA,NA,NA,NA,NA
1153940,292,253,"2015-09-02 13:02:33",1,images/city8.png,1,NA,NA,NA,NA,NA,NA
1153940,293,253,"2015-09-02 13:02:33",1,images/city7.png,1,NA,NA,NA,NA,NA,NA
1153940,294,253,"2015-09-02 13:02:33",1,images/city9.png,1,NA,NA,NA,NA,NA,NA
1153940,295,253,"2015-09-02 13:02:33",1,images/city5.png,1,NA,NA,NA,NA,NA,NA
1153940,296,253,"2015-09-02 13:02:33",1,images/city8.png,1,NA,NA,NA,NA,NA,NA
1153940,297,253,"2015-09-02 13:02:33",1,images/city2.png,1,NA,NA,NA,NA,NA,NA
1153940,298,253,"2015-09-02 13:02:33",1,images/city8.png,1,NA,NA,NA,NA,NA,NA
1153940,299,253,"2015-09-02 13:02:33",1,images/city3.png,1,NA,NA,NA,NA,NA,NA
1153940,300,253,"2015-09-02 13:02:33",1,images/city8.png,1,NA,NA,NA,NA,NA,NA
1153940,301,253,"2015-09-02 13:02:33",1,images/city1.png,1,NA,NA,NA,NA,NA,NA
1153940,302,253,"2015-09-02 13:02:33",1,images/city5.png,1,NA,NA,NA,NA,NA,NA
1153940,303,253,"2015-09-02 13:02:33",1,images/city3.png,1,NA,NA,NA,NA,NA,NA
1153940,304,253,"2015-09-02 13:02:33",1,images/city8.png,1,NA,NA,NA,NA,NA,NA
1153940,305,253,"2015-09-02 13:02:33",1,images/city3.png,1,NA,NA,NA,NA,NA,NA
1153940,306,253,"2015-09-02 13:02:33",1,images/city5.png,1,NA,NA,NA,NA,NA,NA
1153940,307,253,"2015-09-02 13:02:33",1,images/city1.png,1,NA,NA,NA,NA,NA,NA
1153940,308,253,"2015-09-02 13:02:33",1,images/city8.png,1,NA,NA,NA,NA,NA,NA
1153940,309,253,"2015-09-02 13:02:33",1,images/mountain8.png,0,NA,NA,NA,NA,NA,NA
1153940,310,253,"2015-09-02 13:02:33",1,images/city2.png,1,NA,NA,NA,NA,NA,NA
1153940,311,253,"2015-09-02 13:02:33",1,images/city3.png,1,NA,NA,NA,NA,NA,NA
1153940,312,253,"2015-09-02 13:02:33",1,images/city8.png,1,NA,NA,NA,NA,NA,NA
1153940,313,253,"2015-09-02 13:02:33",1,images/city1.png,1,NA,NA,NA,NA,NA,NA
1153940,314,253,"2015-09-02 13:02:33",1,images/city8.png,1,NA,NA,NA,NA,NA,NA
1153940,315,253,"2015-09-02 13:02:33",1,images/city6.png,1,NA,NA,NA,NA,NA,NA
1153940,316,253,"2015-09-02 13:02:33",1,images/city8.png,1,NA,NA,NA,NA,NA,NA
1153940,317,253,"2015-09-02 13:02:33",1,images/city9.png,1,NA,NA,NA,NA,NA,NA
1153940,318,253,"2015-09-02 13:02:33",1,images/mountain5.png,0,NA,NA,NA,NA,NA,NA
1153940,319,253,"2015-09-02 13:02:33",1,images/city7.png,1,NA,NA,NA,NA,NA,NA
1153940,320,253,"2015-09-02 13:02:33",1,images/city9.png,1,NA,NA,NA,NA,NA,NA
1153940,321,253,"2015-09-02 13:02:33",1,images/city2.png,1,NA,NA,NA,NA,NA,NA
1153940,322,253,"2015-09-02 13:02:33",1,images/city9.png,1,NA,NA,NA,NA,NA,NA
1153940,323,253,"2015-09-02 13:02:33",1,images/city4.png,1,NA,NA,NA,NA,NA,NA
1153940,324,253,"2015-09-02 13:02:33",1,images/city8.png,1,NA,NA,NA,NA,NA,NA
1153940,325,253,"2015-09-02 13:02:33",1,images/city10.png,1,NA,NA,NA,NA,NA,NA
1153940,326,253,"2015-09-02 13:02:33",1,images/city3.png,1,NA,NA,NA,NA,NA,NA
1153940,327,253,"2015-09-02 13:02:33",1,images/city9.png,1,NA,NA,NA,NA,NA,NA
1153940,328,253,"2015-09-02 13:02:33",1,images/city4.png,1,NA,NA,NA,NA,NA,NA
1153940,329,253,"2015-09-02 13:02:33",1,images/city2.png,1,NA,NA,NA,NA,NA,NA
1153940,330,253,"2015-09-02 13:02:33",1,images/city9.png,1,NA,NA,NA,NA,NA,NA
1153940,331,253,"2015-09-02 13:02:33",1,images/city10.png,1,NA,NA,NA,NA,NA,NA
1153940,332,253,"2015-09-02 13:02:33",2,images/scrambled.png,2,NA,NA,NA,NA,NA,NA
1154149,1,227,"2015-09-02 16:51:18",2,images/city6.png,1,2291,1,2,87.5,2476,2
1154149,2,227,"2015-09-02 16:51:18",2,images/city7.png,1,2398,1,2,93.75,2467,2
1154149,3,227,"2015-09-02 16:51:18",2,images/city8.png,1,2090,1,2,81.25,2472,2
1154149,4,227,"2015-09-02 16:51:18",2,images/mountain6.png,0,0,1,0,0,2474,NA
1154149,5,227,"2015-09-02 16:51:18",2,images/mountain7.png,0,0,1,0,0,2476,NA
1154149,6,227,"2015-09-02 16:51:18",2,images/mountain8.png,0,0,1,0,0,2476,NA
1154149,7,227,"2015-09-02 16:51:18",2,images/city9.png,1,1965,1,2,75,2472,6
1154149,8,227,"2015-09-02 16:51:18",2,images/mountain9.png,0,0,1,0,0,2467,NA
1154149,9,227,"2015-09-02 16:51:18",2,images/city10.png,1,2194,1,2,87.5,2460,2
1154149,10,227,"2015-09-02 16:51:18",2,images/mountain10.png,0,0,1,0,0,2482,NA
1154149,11,227,"2015-09-02 16:51:18",2,images/scrambled.png,0,NA,NA,NA,NA,NA,NA
1154149,12,227,"2015-09-02 16:51:18",2,images/city1.png,1,1100,1,2,81.25,1275,2
1154149,13,227,"2015-09-02 16:51:18",2,images/city2.png,1,1268,1,1,0,1276,1
1154149,14,227,"2015-09-02 16:51:18",2,images/city3.png,1,1528,1,1,25,1252,1
1154149,15,227,"2015-09-02 16:51:18",2,images/mountain1.png,0,0,1,0,0,1251,NA
1154149,16,227,"2015-09-02 16:51:18",2,images/mountain2.png,0,0,1,0,0,1279,NA
1154149,17,227,"2015-09-02 16:51:18",2,images/mountain3.png,0,0,1,0,0,1282,NA
1154149,18,227,"2015-09-02 16:51:18",2,images/city4.png,1,1398,1,1,12.5,1279,1
1154149,19,227,"2015-09-02 16:51:18",2,images/mountain4.png,0,0,1,0,0,1268,NA
1154149,20,227,"2015-09-02 16:51:18",2,images/city5.png,1,1431,1,1,12.5,1282,1
1154149,21,227,"2015-09-02 16:51:18",2,images/mountain5.png,0,0,1,0,0,1268,NA
1154149,22,227,"2015-09-02 16:51:18",2,images/city6.png,1,1376,1,1,12.5,1251,1
1154149,23,227,"2015-09-02 16:51:18",2,images/city7.png,1,1365,1,1,12.5,1259,1
1154149,24,227,"2015-09-02 16:51:18",2,images/city8.png,1,1209,1,1,0,1278,1
1154149,25,227,"2015-09-02 16:51:18",2,images/mountain6.png,0,0,1,0,0,1281,NA
1154149,26,227,"2015-09-02 16:51:18",2,images/mountain7.png,0,0,1,0,0,1278,NA
1154149,27,227,"2015-09-02 16:51:18",2,images/mountain8.png,0,0,1,0,0,1266,NA
1154149,28,227,"2015-09-02 16:51:18",2,images/city9.png,1,1474,1,1,18.75,1282,1
1154149,29,227,"2015-09-02 16:51:18",2,images/mountain9.png,0,0,1,0,0,1270,NA
1154149,30,227,"2015-09-02 16:51:18",2,images/city10.png,1,1117,1,2,87.5,1274,2
1154149,31,227,"2015-09-02 16:51:18",2,images/mountain10.png,0,0,1,0,0,1280,NA
1154149,32,227,"2015-09-02 16:51:18",2,images/scrambled.png,2,NA,NA,NA,NA,NA,NA
1154149,33,227,"2015-09-02 16:51:18",1,images/mountain2.png,0,0,1,0,0,1279,NA
1154149,34,227,"2015-09-02 16:51:18",1,images/city5.png,1,1249,1,1,0,1278,1
1154149,35,227,"2015-09-02 16:51:18",1,images/city1.png,1,1527,1,1,25,1266,1
1154149,36,227,"2015-09-02 16:51:18",1,images/city9.png,1,1308,1,1,6.25,1275,1
1154149,37,227,"2015-09-02 16:51:18",1,images/city3.png,1,1222,1,1,0,1245,1
1154149,38,227,"2015-09-02 16:51:18",1,images/city2.png,1,1520,1,1,25,1247,1
1154149,39,227,"2015-09-02 16:51:18",1,images/city1.png,1,1238,1,1,0,1274,1
1154149,40,227,"2015-09-02 16:51:18",1,images/city8.png,1,1319,1,1,6.25,1287,1
1154149,41,227,"2015-09-02 16:51:18",1,images/city1.png,1,1284,1,1,6.25,1275,1
1154149,42,227,"2015-09-02 16:51:18",1,images/city7.png,1,1321,1,1,6.25,1283,1
1154149,43,227,"2015-09-02 16:51:18",1,images/city4.png,1,1330,1,1,6.25,1279,1
1154149,44,227,"2015-09-02 16:51:18",1,images/city10.png,1,1229,1,1,0,1277,1
1154149,45,227,"2015-09-02 16:51:18",1,images/city6.png,1,1410,1,1,12.5,1266,1
1154149,46,227,"2015-09-02 16:51:18",1,images/city8.png,1,1372,1,1,12.5,1255,1
1154149,47,227,"2015-09-02 16:51:18",1,images/city3.png,1,1209,1,1,0,1258,1
1154149,48,227,"2015-09-02 16:51:18",1,images/mountain2.png,0,0,1,0,0,1273,NA
1154149,49,227,"2015-09-02 16:51:18",1,images/mountain5.png,0,0,1,0,0,1281,NA
1154149,50,227,"2015-09-02 16:51:18",1,images/city10.png,1,1347,1,1,6.25,1276,1
1154149,51,227,"2015-09-02 16:51:18",1,images/city1.png,1,1240,1,1,0,1282,1
1154149,52,227,"2015-09-02 16:51:18",1,images/city10.png,1,1216,1,1,0,1280,1
1154149,53,227,"2015-09-02 16:51:18",1,images/city1.png,1,1290,1,1,6.25,1270,1
1154149,54,227,"2015-09-02 16:51:18",1,images/city2.png,1,1258,1,2,93.75,1272,2
1154149,55,227,"2015-09-02 16:51:18",1,images/city9.png,1,1380,1,1,12.5,1277,1
1154149,56,227,"2015-09-02 16:51:18",1,images/city10.png,1,1236,1,2,93.75,1278,2
1154149,57,227,"2015-09-02 16:51:18",1,images/city9.png,1,1331,1,1,6.25,1282,1
1154149,58,227,"2015-09-02 16:51:18",1,images/city5.png,1,1219,1,1,0,1280,1
1154149,59,227,"2015-09-02 16:51:18",1,images/city6.png,1,1327,1,1,6.25,1276,1
1154149,60,227,"2015-09-02 16:51:18",1,images/city3.png,1,1279,1,2,93.75,1280,2
1154149,61,227,"2015-09-02 16:51:18",1,images/city7.png,1,1267,1,1,0,1276,1
1154149,62,227,"2015-09-02 16:51:18",1,images/city1.png,1,1222,1,1,0,1277,1
1154149,63,227,"2015-09-02 16:51:18",1,images/city5.png,1,1238,1,1,0,1280,1
1154149,64,227,"2015-09-02 16:51:18",1,images/mountain3.png,0,0,1,0,0,1281,NA
1154149,65,227,"2015-09-02 16:51:18",1,images/city7.png,1,1327,1,1,6.25,1269,1
1154149,66,227,"2015-09-02 16:51:18",1,images/city10.png,1,1426,1,1,12.5,1269,1
1154149,67,227,"2015-09-02 16:51:18",1,images/city3.png,1,1298,1,1,6.25,1271,1
1154149,68,227,"2015-09-02 16:51:18",1,images/city4.png,1,1358,1,1,12.5,1277,1
1154149,69,227,"2015-09-02 16:51:18",1,images/city5.png,1,1248,1,1,0,1269,1
1154149,70,227,"2015-09-02 16:51:18",1,images/city3.png,1,1215,1,1,0,1273,1
1154149,71,227,"2015-09-02 16:51:18",1,images/city9.png,1,1103,1,2,81.25,1273,2
1154149,72,227,"2015-09-02 16:51:18",1,images/city1.png,1,1230,1,2,93.75,1283,2
1154149,73,227,"2015-09-02 16:51:18",1,images/city6.png,1,1272,1,1,0,1282,1
1154149,74,227,"2015-09-02 16:51:18",1,images/mountain1.png,0,1249,-1,2,93.75,1276,2
1154149,75,227,"2015-09-02 16:51:18",1,images/city7.png,1,1273,1,1,0,1273,1
1154149,76,227,"2015-09-02 16:51:18",1,images/city6.png,1,1251,1,1,0,1278,1
1154149,77,227,"2015-09-02 16:51:18",1,images/city10.png,1,1237,1,1,0,1276,1
1154149,78,227,"2015-09-02 16:51:18",1,images/city7.png,1,1403,1,1,12.5,1257,1
1154149,79,227,"2015-09-02 16:51:18",1,images/city6.png,1,1488,1,1,18.75,1252,1
1154149,80,227,"2015-09-02 16:51:18",1,images/mountain1.png,0,0,1,0,0,1275,NA
1154149,81,227,"2015-09-02 16:51:18",1,images/city9.png,1,1245,1,2,93.75,1278,2
1154149,82,227,"2015-09-02 16:51:18",1,images/city6.png,1,1191,1,2,87.5,1277,2
1154149,83,227,"2015-09-02 16:51:18",1,images/city3.png,1,1233,1,1,0,1281,1
1154149,84,227,"2015-09-02 16:51:18",1,images/city2.png,1,1669,1,1,31.25,1284,1
1154149,85,227,"2015-09-02 16:51:18",1,images/city10.png,1,1598,1,1,31.25,1278,1
1154149,86,227,"2015-09-02 16:51:18",1,images/city1.png,1,0,0,0,0,1248,NA
1154149,87,227,"2015-09-02 16:51:18",1,images/city10.png,1,837,1,2,62.5,1254,7
1154149,88,227,"2015-09-02 16:51:18",1,images/city9.png,1,1224,1,1,0,1272,1
1154149,89,227,"2015-09-02 16:51:18",1,images/city3.png,1,0,0,0,0,1280,NA
1154149,90,227,"2015-09-02 16:51:18",1,images/city5.png,1,1317,1,1,6.25,1275,1
1154149,91,227,"2015-09-02 16:51:18",1,images/mountain9.png,0,1261,-1,1,0,1272,1
1154149,92,227,"2015-09-02 16:51:18",1,images/city2.png,1,1142,1,2,87.5,1277,2
1154149,93,227,"2015-09-02 16:51:18",1,images/city3.png,1,1366,1,1,12.5,1273,1
1154149,94,227,"2015-09-02 16:51:18",1,images/city10.png,1,1342,1,1,6.25,1263,1
1154149,95,227,"2015-09-02 16:51:18",1,images/city8.png,1,1371,1,1,12.5,1283,1
1154149,96,227,"2015-09-02 16:51:18",1,images/city2.png,1,0,0,0,0,1279,NA
1154149,97,227,"2015-09-02 16:51:18",1,images/city6.png,1,900,1,2,68.75,1262,7
1154149,98,227,"2015-09-02 16:51:18",1,images/city5.png,1,1110,1,2,81.25,1277,2
1154149,99,227,"2015-09-02 16:51:18",1,images/city6.png,1,1265,1,2,93.75,1276,2
1154149,100,227,"2015-09-02 16:51:18",1,images/city1.png,1,1132,1,2,87.5,1273,2
1154149,101,227,"2015-09-02 16:51:18",1,images/city10.png,1,1219,1,2,93.75,1273,2
1154149,102,227,"2015-09-02 16:51:18",1,images/city1.png,1,1178,1,2,87.5,1260,2
1154149,103,227,"2015-09-02 16:51:18",1,images/city6.png,1,1265,1,1,0,1252,1
1154149,104,227,"2015-09-02 16:51:18",1,images/city9.png,1,1261,1,1,0,1268,1
1154149,105,227,"2015-09-02 16:51:18",1,images/city10.png,1,1085,1,2,81.25,1275,2
1154149,106,227,"2015-09-02 16:51:18",1,images/city1.png,1,1218,1,2,93.75,1281,2
1154149,107,227,"2015-09-02 16:51:18",1,images/city5.png,1,1217,1,2,93.75,1274,2
1154149,108,227,"2015-09-02 16:51:18",1,images/city1.png,1,1216,1,1,0,1279,1
1154149,109,227,"2015-09-02 16:51:18",1,images/city7.png,1,1256,1,2,93.75,1274,2
1154149,110,227,"2015-09-02 16:51:18",1,images/city10.png,1,1246,1,2,93.75,1273,2
1154149,111,227,"2015-09-02 16:51:18",1,images/city8.png,1,1133,1,2,87.5,1282,2
1154149,112,227,"2015-09-02 16:51:18",1,images/city7.png,1,1404,1,1,12.5,1271,1
1154149,113,227,"2015-09-02 16:51:18",1,images/city9.png,1,1277,1,1,6.25,1279,1
1154149,114,227,"2015-09-02 16:51:18",1,images/city6.png,1,1189,1,2,87.5,1278,2
1154149,115,227,"2015-09-02 16:51:18",1,images/city4.png,1,1183,1,2,87.5,1275,2
1154149,116,227,"2015-09-02 16:51:18",1,images/city7.png,1,1383,1,1,12.5,1279,1
1154149,117,227,"2015-09-02 16:51:18",1,images/city3.png,1,1245,1,1,0,1280,1
1154149,118,227,"2015-09-02 16:51:18",1,images/city7.png,1,1181,1,2,87.5,1267,2
1154149,119,227,"2015-09-02 16:51:18",1,images/city8.png,1,1147,1,2,87.5,1280,2
1154149,120,227,"2015-09-02 16:51:18",1,images/mountain9.png,0,0,1,0,0,1278,NA
1154149,121,227,"2015-09-02 16:51:18",1,images/city2.png,1,1270,1,1,0,1278,1
1154149,122,227,"2015-09-02 16:51:18",1,images/city6.png,1,1314,1,1,6.25,1268,1
1154149,123,227,"2015-09-02 16:51:18",1,images/city4.png,1,1522,1,1,25,1278,1
1154149,124,227,"2015-09-02 16:51:18",1,images/city6.png,1,1264,1,1,0,1275,1
1154149,125,227,"2015-09-02 16:51:18",1,images/city3.png,1,1191,1,2,87.5,1281,2
1154149,126,227,"2015-09-02 16:51:18",1,images/city4.png,1,1234,1,1,0,1260,1
1154149,127,227,"2015-09-02 16:51:18",1,images/city8.png,1,1243,1,1,0,1247,1
1154149,128,227,"2015-09-02 16:51:18",1,images/city9.png,1,1228,1,2,93.75,1245,2
1154149,129,227,"2015-09-02 16:51:18",1,images/mountain9.png,0,1095,-1,2,81.25,1273,2
1154149,130,227,"2015-09-02 16:51:18",1,images/city3.png,1,1190,1,2,87.5,1274,2
1154149,131,227,"2015-09-02 16:51:18",1,images/city1.png,1,1210,1,2,93.75,1274,2
1154149,132,227,"2015-09-02 16:51:18",1,images/city4.png,1,0,0,0,0,1260,NA
1154149,133,227,"2015-09-02 16:51:18",1,images/city8.png,1,NA,NA,NA,NA,NA,NA
1154149,134,227,"2015-09-02 16:51:18",1,images/city5.png,1,NA,NA,NA,NA,NA,NA
1154149,135,227,"2015-09-02 16:51:18",1,images/city3.png,1,NA,NA,NA,NA,NA,NA
1154149,136,227,"2015-09-02 16:51:18",1,images/city6.png,1,NA,NA,NA,NA,NA,NA
1154149,137,227,"2015-09-02 16:51:18",1,images/city9.png,1,NA,NA,NA,NA,NA,NA
1154149,138,227,"2015-09-02 16:51:18",1,images/city4.png,1,NA,NA,NA,NA,NA,NA
1154149,139,227,"2015-09-02 16:51:18",1,images/mountain6.png,0,NA,NA,NA,NA,NA,NA
1154149,140,227,"2015-09-02 16:51:18",1,images/city4.png,1,NA,NA,NA,NA,NA,NA
1154149,141,227,"2015-09-02 16:51:18",1,images/mountain1.png,0,NA,NA,NA,NA,NA,NA
1154149,142,227,"2015-09-02 16:51:18",1,images/city4.png,1,NA,NA,NA,NA,NA,NA
1154149,143,227,"2015-09-02 16:51:18",1,images/city3.png,1,NA,NA,NA,NA,NA,NA
1154149,144,227,"2015-09-02 16:51:18",1,images/mountain9.png,0,NA,NA,NA,NA,NA,NA
1154149,145,227,"2015-09-02 16:51:18",1,images/city8.png,1,NA,NA,NA,NA,NA,NA
1154149,146,227,"2015-09-02 16:51:18",1,images/mountain1.png,0,NA,NA,NA,NA,NA,NA
1154149,147,227,"2015-09-02 16:51:18",1,images/city3.png,1,NA,NA,NA,NA,NA,NA
1154149,148,227,"2015-09-02 16:51:18",1,images/city8.png,1,NA,NA,NA,NA,NA,NA
1154149,149,227,"2015-09-02 16:51:18",1,images/city5.png,1,NA,NA,NA,NA,NA,NA
1154149,150,227,"2015-09-02 16:51:18",1,images/city7.png,1,NA,NA,NA,NA,NA,NA
1154149,151,227,"2015-09-02 16:51:18",1,images/city10.png,1,NA,NA,NA,NA,NA,NA
1154149,152,227,"2015-09-02 16:51:18",1,images/city1.png,1,NA,NA,NA,NA,NA,NA
1154149,153,227,"2015-09-02 16:51:18",1,images/city5.png,1,NA,NA,NA,NA,NA,NA
1154149,154,227,"2015-09-02 16:51:18",1,images/city9.png,1,NA,NA,NA,NA,NA,NA
1154149,155,227,"2015-09-02 16:51:18",1,images/city2.png,1,NA,NA,NA,NA,NA,NA
1154149,156,227,"2015-09-02 16:51:18",1,images/city5.png,1,NA,NA,NA,NA,NA,NA
1154149,157,227,"2015-09-02 16:51:18",1,images/city7.png,1,NA,NA,NA,NA,NA,NA
1154149,158,227,"2015-09-02 16:51:18",1,images/city6.png,1,NA,NA,NA,NA,NA,NA
1154149,159,227,"2015-09-02 16:51:18",1,images/city5.png,1,NA,NA,NA,NA,NA,NA
1154149,160,227,"2015-09-02 16:51:18",1,images/city6.png,1,NA,NA,NA,NA,NA,NA
1154149,161,227,"2015-09-02 16:51:18",1,images/city1.png,1,NA,NA,NA,NA,NA,NA
1154149,162,227,"2015-09-02 16:51:18",1,images/city9.png,1,NA,NA,NA,NA,NA,NA
1154149,163,227,"2015-09-02 16:51:18",1,images/city8.png,1,NA,NA,NA,NA,NA,NA
1154149,164,227,"2015-09-02 16:51:18",1,images/mountain3.png,0,NA,NA,NA,NA,NA,NA
1154149,165,227,"2015-09-02 16:51:18",1,images/mountain4.png,0,NA,NA,NA,NA,NA,NA
1154149,166,227,"2015-09-02 16:51:18",1,images/city1.png,1,NA,NA,NA,NA,NA,NA
1154149,167,227,"2015-09-02 16:51:18",1,images/city10.png,1,NA,NA,NA,NA,NA,NA
1154149,168,227,"2015-09-02 16:51:18",1,images/city7.png,1,NA,NA,NA,NA,NA,NA
1154149,169,227,"2015-09-02 16:51:18",1,images/city2.png,1,NA,NA,NA,NA,NA,NA
1154149,170,227,"2015-09-02 16:51:18",1,images/city8.png,1,NA,NA,NA,NA,NA,NA
1154149,171,227,"2015-09-02 16:51:18",1,images/city5.png,1,NA,NA,NA,NA,NA,NA
1154149,172,227,"2015-09-02 16:51:18",1,images/mountain9.png,0,NA,NA,NA,NA,NA,NA
1154149,173,227,"2015-09-02 16:51:18",1,images/city10.png,1,NA,NA,NA,NA,NA,NA
1154149,174,227,"2015-09-02 16:51:18",1,images/city8.png,1,NA,NA,NA,NA,NA,NA
1154149,175,227,"2015-09-02 16:51:18",1,images/mountain5.png,0,NA,NA,NA,NA,NA,NA
1154149,176,227,"2015-09-02 16:51:18",1,images/city7.png,1,NA,NA,NA,NA,NA,NA
1154149,177,227,"2015-09-02 16:51:18",1,images/city8.png,1,NA,NA,NA,NA,NA,NA
1154149,178,227,"2015-09-02 16:51:18",1,images/city10.png,1,NA,NA,NA,NA,NA,NA
1154149,179,227,"2015-09-02 16:51:18",1,images/city1.png,1,NA,NA,NA,NA,NA,NA
1154149,180,227,"2015-09-02 16:51:18",1,images/city5.png,1,NA,NA,NA,NA,NA,NA
1154149,181,227,"2015-09-02 16:51:18",1,images/city6.png,1,NA,NA,NA,NA,NA,NA
1154149,182,227,"2015-09-02 16:51:18",1,images/city8.png,1,NA,NA,NA,NA,NA,NA
1154149,183,227,"2015-09-02 16:51:18",1,images/city4.png,1,NA,NA,NA,NA,NA,NA
1154149,184,227,"2015-09-02 16:51:18",1,images/city10.png,1,NA,NA,NA,NA,NA,NA
1154149,185,227,"2015-09-02 16:51:18",1,images/mountain7.png,0,NA,NA,NA,NA,NA,NA
1154149,186,227,"2015-09-02 16:51:18",1,images/city7.png,1,NA,NA,NA,NA,NA,NA
1154149,187,227,"2015-09-02 16:51:18",1,images/city8.png,1,NA,NA,NA,NA,NA,NA
1154149,188,227,"2015-09-02 16:51:18",1,images/city10.png,1,NA,NA,NA,NA,NA,NA
1154149,189,227,"2015-09-02 16:51:18",1,images/city9.png,1,NA,NA,NA,NA,NA,NA
1154149,190,227,"2015-09-02 16:51:18",1,images/city7.png,1,NA,NA,NA,NA,NA,NA
1154149,191,227,"2015-09-02 16:51:18",1,images/city9.png,1,NA,NA,NA,NA,NA,NA
1154149,192,227,"2015-09-02 16:51:18",1,images/city6.png,1,NA,NA,NA,NA,NA,NA
1154149,193,227,"2015-09-02 16:51:18",1,images/mountain5.png,0,NA,NA,NA,NA,NA,NA
1154149,194,227,"2015-09-02 16:51:18",1,images/city2.png,1,NA,NA,NA,NA,NA,NA
1154149,195,227,"2015-09-02 16:51:18",1,images/city8.png,1,NA,NA,NA,NA,NA,NA
1154149,196,227,"2015-09-02 16:51:18",1,images/city9.png,1,NA,NA,NA,NA,NA,NA
1154149,197,227,"2015-09-02 16:51:18",1,images/city2.png,1,NA,NA,NA,NA,NA,NA
1154149,198,227,"2015-09-02 16:51:18",1,images/city7.png,1,NA,NA,NA,NA,NA,NA
1154149,199,227,"2015-09-02 16:51:18",1,images/mountain7.png,0,NA,NA,NA,NA,NA,NA
1154149,200,227,"2015-09-02 16:51:18",1,images/city8.png,1,NA,NA,NA,NA,NA,NA
1154149,201,227,"2015-09-02 16:51:18",1,images/city10.png,1,NA,NA,NA,NA,NA,NA
1154149,202,227,"2015-09-02 16:51:18",1,images/city9.png,1,NA,NA,NA,NA,NA,NA
1154149,203,227,"2015-09-02 16:51:18",1,images/city10.png,1,NA,NA,NA,NA,NA,NA
1154149,204,227,"2015-09-02 16:51:18",1,images/city9.png,1,NA,NA,NA,NA,NA,NA
1154149,205,227,"2015-09-02 16:51:18",1,images/city6.png,1,NA,NA,NA,NA,NA,NA
1154149,206,227,"2015-09-02 16:51:18",1,images/city9.png,1,NA,NA,NA,NA,NA,NA
1154149,207,227,"2015-09-02 16:51:18",1,images/city1.png,1,NA,NA,NA,NA,NA,NA
1154149,208,227,"2015-09-02 16:51:18",1,images/city2.png,1,NA,NA,NA,NA,NA,NA
1154149,209,227,"2015-09-02 16:51:18",1,images/city4.png,1,NA,NA,NA,NA,NA,NA
1154149,210,227,"2015-09-02 16:51:18",1,images/city8.png,1,NA,NA,NA,NA,NA,NA
1154149,211,227,"2015-09-02 16:51:18",1,images/city10.png,1,NA,NA,NA,NA,NA,NA
1154149,212,227,"2015-09-02 16:51:18",1,images/city6.png,1,NA,NA,NA,NA,NA,NA
1154149,213,227,"2015-09-02 16:51:18",1,images/city8.png,1,NA,NA,NA,NA,NA,NA
1154149,214,227,"2015-09-02 16:51:18",1,images/city4.png,1,NA,NA,NA,NA,NA,NA
1154149,215,227,"2015-09-02 16:51:18",1,images/city9.png,1,NA,NA,NA,NA,NA,NA
1154149,216,227,"2015-09-02 16:51:18",1,images/city2.png,1,NA,NA,NA,NA,NA,NA
1154149,217,227,"2015-09-02 16:51:18",1,images/city7.png,1,NA,NA,NA,NA,NA,NA
1154149,218,227,"2015-09-02 16:51:18",1,images/city2.png,1,NA,NA,NA,NA,NA,NA
1154149,219,227,"2015-09-02 16:51:18",1,images/city5.png,1,NA,NA,NA,NA,NA,NA
1154149,220,227,"2015-09-02 16:51:18",1,images/city1.png,1,NA,NA,NA,NA,NA,NA
1154149,221,227,"2015-09-02 16:51:18",1,images/city9.png,1,NA,NA,NA,NA,NA,NA
1154149,222,227,"2015-09-02 16:51:18",1,images/city2.png,1,NA,NA,NA,NA,NA,NA
1154149,223,227,"2015-09-02 16:51:18",1,images/city7.png,1,NA,NA,NA,NA,NA,NA
1154149,224,227,"2015-09-02 16:51:18",1,images/city5.png,1,NA,NA,NA,NA,NA,NA
1154149,225,227,"2015-09-02 16:51:18",1,images/city10.png,1,NA,NA,NA,NA,NA,NA
1154149,226,227,"2015-09-02 16:51:18",1,images/city8.png,1,NA,NA,NA,NA,NA,NA
1154149,227,227,"2015-09-02 16:51:18",1,images/mountain8.png,0,NA,NA,NA,NA,NA,NA
1154149,228,227,"2015-09-02 16:51:18",1,images/city8.png,1,NA,NA,NA,NA,NA,NA
1154149,229,227,"2015-09-02 16:51:18",1,images/city1.png,1,NA,NA,NA,NA,NA,NA
1154149,230,227,"2015-09-02 16:51:18",1,images/city10.png,1,NA,NA,NA,NA,NA,NA
1154149,231,227,"2015-09-02 16:51:18",1,images/city3.png,1,NA,NA,NA,NA,NA,NA
1154149,232,227,"2015-09-02 16:51:18",1,images/city7.png,1,NA,NA,NA,NA,NA,NA
1154149,233,227,"2015-09-02 16:51:18",1,images/city6.png,1,NA,NA,NA,NA,NA,NA
1154149,234,227,"2015-09-02 16:51:18",1,images/city7.png,1,NA,NA,NA,NA,NA,NA
1154149,235,227,"2015-09-02 16:51:18",1,images/city1.png,1,NA,NA,NA,NA,NA,NA
1154149,236,227,"2015-09-02 16:51:18",1,images/city8.png,1,NA,NA,NA,NA,NA,NA
1154149,237,227,"2015-09-02 16:51:18",1,images/city4.png,1,NA,NA,NA,NA,NA,NA
1154149,238,227,"2015-09-02 16:51:18",1,images/city9.png,1,NA,NA,NA,NA,NA,NA
1154149,239,227,"2015-09-02 16:51:18",1,images/city2.png,1,NA,NA,NA,NA,NA,NA
1154149,240,227,"2015-09-02 16:51:18",1,images/city4.png,1,NA,NA,NA,NA,NA,NA
1154149,241,227,"2015-09-02 16:51:18",1,images/city8.png,1,NA,NA,NA,NA,NA,NA
1154149,242,227,"2015-09-02 16:51:18",1,images/city4.png,1,NA,NA,NA,NA,NA,NA
1154149,243,227,"2015-09-02 16:51:18",1,images/mountain2.png,0,NA,NA,NA,NA,NA,NA
1154149,244,227,"2015-09-02 16:51:18",1,images/city9.png,1,NA,NA,NA,NA,NA,NA
1154149,245,227,"2015-09-02 16:51:18",1,images/city10.png,1,NA,NA,NA,NA,NA,NA
1154149,246,227,"2015-09-02 16:51:18",1,images/city5.png,1,NA,NA,NA,NA,NA,NA
1154149,247,227,"2015-09-02 16:51:18",1,images/city9.png,1,NA,NA,NA,NA,NA,NA
1154149,248,227,"2015-09-02 16:51:18",1,images/city1.png,1,NA,NA,NA,NA,NA,NA
1154149,249,227,"2015-09-02 16:51:18",1,images/city4.png,1,NA,NA,NA,NA,NA,NA
1154149,250,227,"2015-09-02 16:51:18",1,images/mountain7.png,0,NA,NA,NA,NA,NA,NA
1154149,251,227,"2015-09-02 16:51:18",1,images/city6.png,1,NA,NA,NA,NA,NA,NA
1154149,252,227,"2015-09-02 16:51:18",1,images/city8.png,1,NA,NA,NA,NA,NA,NA
1154149,253,227,"2015-09-02 16:51:18",1,images/mountain7.png,0,NA,NA,NA,NA,NA,NA
1154149,254,227,"2015-09-02 16:51:18",1,images/city3.png,1,NA,NA,NA,NA,NA,NA
1154149,255,227,"2015-09-02 16:51:18",1,images/city2.png,1,NA,NA,NA,NA,NA,NA
1154149,256,227,"2015-09-02 16:51:18",1,images/city9.png,1,NA,NA,NA,NA,NA,NA
1154149,257,227,"2015-09-02 16:51:18",1,images/mountain4.png,0,NA,NA,NA,NA,NA,NA
1154149,258,227,"2015-09-02 16:51:18",1,images/city10.png,1,NA,NA,NA,NA,NA,NA
1154149,259,227,"2015-09-02 16:51:18",1,images/city3.png,1,NA,NA,NA,NA,NA,NA
1154149,260,227,"2015-09-02 16:51:18",1,images/mountain1.png,0,NA,NA,NA,NA,NA,NA
1154149,261,227,"2015-09-02 16:51:18",1,images/city2.png,1,NA,NA,NA,NA,NA,NA
1154149,262,227,"2015-09-02 16:51:18",1,images/mountain4.png,0,NA,NA,NA,NA,NA,NA
1154149,263,227,"2015-09-02 16:51:18",1,images/city7.png,1,NA,NA,NA,NA,NA,NA
1154149,264,227,"2015-09-02 16:51:18",1,images/city8.png,1,NA,NA,NA,NA,NA,NA
1154149,265,227,"2015-09-02 16:51:18",1,images/city4.png,1,NA,NA,NA,NA,NA,NA
1154149,266,227,"2015-09-02 16:51:18",1,images/city3.png,1,NA,NA,NA,NA,NA,NA
1154149,267,227,"2015-09-02 16:51:18",1,images/city6.png,1,NA,NA,NA,NA,NA,NA
1154149,268,227,"2015-09-02 16:51:18",1,images/city4.png,1,NA,NA,NA,NA,NA,NA
1154149,269,227,"2015-09-02 16:51:18",1,images/city5.png,1,NA,NA,NA,NA,NA,NA
1154149,270,227,"2015-09-02 16:51:18",1,images/city3.png,1,NA,NA,NA,NA,NA,NA
1154149,271,227,"2015-09-02 16:51:18",1,images/city6.png,1,NA,NA,NA,NA,NA,NA
1154149,272,227,"2015-09-02 16:51:18",1,images/city2.png,1,NA,NA,NA,NA,NA,NA
1154149,273,227,"2015-09-02 16:51:18",1,images/city6.png,1,NA,NA,NA,NA,NA,NA
1154149,274,227,"2015-09-02 16:51:18",1,images/city4.png,1,NA,NA,NA,NA,NA,NA
1154149,275,227,"2015-09-02 16:51:18",1,images/city3.png,1,NA,NA,NA,NA,NA,NA
1154149,276,227,"2015-09-02 16:51:18",1,images/mountain8.png,0,NA,NA,NA,NA,NA,NA
1154149,277,227,"2015-09-02 16:51:18",1,images/mountain9.png,0,NA,NA,NA,NA,NA,NA
1154149,278,227,"2015-09-02 16:51:18",1,images/city10.png,1,NA,NA,NA,NA,NA,NA
1154149,279,227,"2015-09-02 16:51:18",1,images/city8.png,1,NA,NA,NA,NA,NA,NA
1154149,280,227,"2015-09-02 16:51:18",1,images/city10.png,1,NA,NA,NA,NA,NA,NA
1154149,281,227,"2015-09-02 16:51:18",1,images/city9.png,1,NA,NA,NA,NA,NA,NA
1154149,282,227,"2015-09-02 16:51:18",1,images/city10.png,1,NA,NA,NA,NA,NA,NA
1154149,283,227,"2015-09-02 16:51:18",1,images/city1.png,1,NA,NA,NA,NA,NA,NA
1154149,284,227,"2015-09-02 16:51:18",1,images/city5.png,1,NA,NA,NA,NA,NA,NA
1154149,285,227,"2015-09-02 16:51:18",1,images/city1.png,1,NA,NA,NA,NA,NA,NA
1154149,286,227,"2015-09-02 16:51:18",1,images/city10.png,1,NA,NA,NA,NA,NA,NA
1154149,287,227,"2015-09-02 16:51:18",1,images/city2.png,1,NA,NA,NA,NA,NA,NA
1154149,288,227,"2015-09-02 16:51:18",1,images/city3.png,1,NA,NA,NA,NA,NA,NA
1154149,289,227,"2015-09-02 16:51:18",1,images/city4.png,1,NA,NA,NA,NA,NA,NA
1154149,290,227,"2015-09-02 16:51:18",1,images/city2.png,1,NA,NA,NA,NA,NA,NA
1154149,291,227,"2015-09-02 16:51:18",1,images/mountain10.png,0,NA,NA,NA,NA,NA,NA
1154149,292,227,"2015-09-02 16:51:18",1,images/city8.png,1,NA,NA,NA,NA,NA,NA
1154149,293,227,"2015-09-02 16:51:18",1,images/city7.png,1,NA,NA,NA,NA,NA,NA
1154149,294,227,"2015-09-02 16:51:18",1,images/city9.png,1,NA,NA,NA,NA,NA,NA
1154149,295,227,"2015-09-02 16:51:18",1,images/city5.png,1,NA,NA,NA,NA,NA,NA
1154149,296,227,"2015-09-02 16:51:18",1,images/city8.png,1,NA,NA,NA,NA,NA,NA
1154149,297,227,"2015-09-02 16:51:18",1,images/city2.png,1,NA,NA,NA,NA,NA,NA
1154149,298,227,"2015-09-02 16:51:18",1,images/city8.png,1,NA,NA,NA,NA,NA,NA
1154149,299,227,"2015-09-02 16:51:18",1,images/city3.png,1,NA,NA,NA,NA,NA,NA
1154149,300,227,"2015-09-02 16:51:18",1,images/city8.png,1,NA,NA,NA,NA,NA,NA
1154149,301,227,"2015-09-02 16:51:18",1,images/city1.png,1,NA,NA,NA,NA,NA,NA
1154149,302,227,"2015-09-02 16:51:18",1,images/city5.png,1,NA,NA,NA,NA,NA,NA
1154149,303,227,"2015-09-02 16:51:18",1,images/city3.png,1,NA,NA,NA,NA,NA,NA
1154149,304,227,"2015-09-02 16:51:18",1,images/city8.png,1,NA,NA,NA,NA,NA,NA
1154149,305,227,"2015-09-02 16:51:18",1,images/city3.png,1,NA,NA,NA,NA,NA,NA
1154149,306,227,"2015-09-02 16:51:18",1,images/city5.png,1,NA,NA,NA,NA,NA,NA
1154149,307,227,"2015-09-02 16:51:18",1,images/city1.png,1,NA,NA,NA,NA,NA,NA
1154149,308,227,"2015-09-02 16:51:18",1,images/city8.png,1,NA,NA,NA,NA,NA,NA
1154149,309,227,"2015-09-02 16:51:18",1,images/mountain8.png,0,NA,NA,NA,NA,NA,NA
1154149,310,227,"2015-09-02 16:51:18",1,images/city2.png,1,NA,NA,NA,NA,NA,NA
1154149,311,227,"2015-09-02 16:51:18",1,images/city3.png,1,NA,NA,NA,NA,NA,NA
1154149,312,227,"2015-09-02 16:51:18",1,images/city8.png,1,NA,NA,NA,NA,NA,NA
1154149,313,227,"2015-09-02 16:51:18",1,images/city1.png,1,NA,NA,NA,NA,NA,NA
1154149,314,227,"2015-09-02 16:51:18",1,images/city8.png,1,NA,NA,NA,NA,NA,NA
1154149,315,227,"2015-09-02 16:51:18",1,images/city6.png,1,NA,NA,NA,NA,NA,NA
1154149,316,227,"2015-09-02 16:51:18",1,images/city8.png,1,NA,NA,NA,NA,NA,NA
1154149,317,227,"2015-09-02 16:51:18",1,images/city9.png,1,NA,NA,NA,NA,NA,NA
1154149,318,227,"2015-09-02 16:51:18",1,images/mountain5.png,0,NA,NA,NA,NA,NA,NA
1154149,319,227,"2015-09-02 16:51:18",1,images/city7.png,1,NA,NA,NA,NA,NA,NA
1154149,320,227,"2015-09-02 16:51:18",1,images/city9.png,1,NA,NA,NA,NA,NA,NA
1154149,321,227,"2015-09-02 16:51:18",1,images/city2.png,1,NA,NA,NA,NA,NA,NA
1154149,322,227,"2015-09-02 16:51:18",1,images/city9.png,1,NA,NA,NA,NA,NA,NA
1154149,323,227,"2015-09-02 16:51:18",1,images/city4.png,1,NA,NA,NA,NA,NA,NA
1154149,324,227,"2015-09-02 16:51:18",1,images/city8.png,1,NA,NA,NA,NA,NA,NA
1154149,325,227,"2015-09-02 16:51:18",1,images/city10.png,1,NA,NA,NA,NA,NA,NA
1154149,326,227,"2015-09-02 16:51:18",1,images/city3.png,1,NA,NA,NA,NA,NA,NA
1154149,327,227,"2015-09-02 16:51:18",1,images/city9.png,1,NA,NA,NA,NA,NA,NA
1154149,328,227,"2015-09-02 16:51:18",1,images/city4.png,1,NA,NA,NA,NA,NA,NA
1154149,329,227,"2015-09-02 16:51:18",1,images/city2.png,1,NA,NA,NA,NA,NA,NA
1154149,330,227,"2015-09-02 16:51:18",1,images/city9.png,1,NA,NA,NA,NA,NA,NA
1154149,331,227,"2015-09-02 16:51:18",1,images/city10.png,1,NA,NA,NA,NA,NA,NA
1154149,332,227,"2015-09-02 16:51:18",2,images/scrambled.png,2,NA,NA,NA,NA,NA,NA
1154164,1,296,"2015-09-02 17:13:49",2,images/city6.png,1,1624,1,2,62.5,2444,6
1154164,2,296,"2015-09-02 17:13:49",2,images/city7.png,1,1500,1,2,56.25,2442,3
1154164,3,296,"2015-09-02 17:13:49",2,images/city8.png,1,2201,1,2,87.5,2448,2
1154164,4,296,"2015-09-02 17:13:49",2,images/mountain6.png,0,1576,-1,2,62.5,2443,3
1154164,5,296,"2015-09-02 17:13:49",2,images/mountain7.png,0,2518,-1,1,0,2438,1
1154164,6,296,"2015-09-02 17:13:49",2,images/mountain8.png,0,2350,-1,2,93.75,2436,2
1154164,7,296,"2015-09-02 17:13:49",2,images/city9.png,1,1545,1,2,62.5,2449,3
1154164,8,296,"2015-09-02 17:13:49",2,images/mountain9.png,0,1376,-1,2,56.25,2447,3
1154164,9,296,"2015-09-02 17:13:49",2,images/city10.png,1,3544,1,1,43.75,15056,5
1154164,10,296,"2015-09-02 17:13:49",2,images/mountain10.png,0,0,1,0,0,2437,NA
1154164,11,296,"2015-09-02 17:13:49",2,images/scrambled.png,0,NA,NA,NA,NA,NA,NA
1154164,12,296,"2015-09-02 17:13:49",2,images/city1.png,1,1284,1,1,6.25,1250,1
1154164,13,296,"2015-09-02 17:13:49",2,images/city2.png,1,1220,1,2,93.75,1245,2
1154164,14,296,"2015-09-02 17:13:49",2,images/city3.png,1,1046,1,2,81.25,1253,2
1154164,15,296,"2015-09-02 17:13:49",2,images/mountain1.png,0,953,-1,2,75,1235,3
1154164,16,296,"2015-09-02 17:13:49",2,images/mountain2.png,0,886,-1,2,68.75,1254,3
1154164,17,296,"2015-09-02 17:13:49",2,images/mountain3.png,0,880,-1,2,68.75,1257,3
1154164,18,296,"2015-09-02 17:13:49",2,images/city4.png,1,895,1,2,68.75,1259,3
1154164,19,296,"2015-09-02 17:13:49",2,images/mountain4.png,0,876,-1,2,68.75,1248,3
1154164,20,296,"2015-09-02 17:13:49",2,images/city5.png,1,956,1,2,75,1257,3
1154164,21,296,"2015-09-02 17:13:49",2,images/mountain5.png,0,962,-1,2,75,1247,3
1154164,22,296,"2015-09-02 17:13:49",2,images/city6.png,1,866,1,2,62.5,1263,3
1154164,23,296,"2015-09-02 17:13:49",2,images/city7.png,1,892,1,2,68.75,1255,3
1154164,24,296,"2015-09-02 17:13:49",2,images/city8.png,1,859,1,2,68.75,1247,3
1154164,25,296,"2015-09-02 17:13:49",2,images/mountain6.png,0,829,-1,2,62.5,1247,3
1154164,26,296,"2015-09-02 17:13:49",2,images/mountain7.png,0,630,-1,2,50,1259,3
1154164,27,296,"2015-09-02 17:13:49",2,images/mountain8.png,0,1274,-1,1,0,1239,1
1154164,28,296,"2015-09-02 17:13:49",2,images/city9.png,1,1272,1,1,0,1259,1
1154164,29,296,"2015-09-02 17:13:49",2,images/mountain9.png,0,1160,-1,2,87.5,1258,2
1154164,30,296,"2015-09-02 17:13:49",2,images/city10.png,1,876,1,2,68.75,1242,3
1154164,31,296,"2015-09-02 17:13:49",2,images/mountain10.png,0,722,-1,2,56.25,1259,3
1154164,32,296,"2015-09-02 17:13:49",2,images/scrambled.png,2,NA,NA,NA,NA,NA,NA
1154164,33,296,"2015-09-02 17:13:49",1,images/mountain2.png,0,0,1,0,0,1254,NA
1154164,34,296,"2015-09-02 17:13:49",1,images/city5.png,1,0,0,0,0,1256,NA
1154164,35,296,"2015-09-02 17:13:49",1,images/city1.png,1,0,0,0,0,1263,NA
1154164,36,296,"2015-09-02 17:13:49",1,images/city9.png,1,802,1,2,62.5,1254,7
1154164,37,296,"2015-09-02 17:13:49",1,images/city3.png,1,764,1,2,56.25,1250,3
1154164,38,296,"2015-09-02 17:13:49",1,images/city2.png,1,1226,1,2,93.75,1267,2
1154164,39,296,"2015-09-02 17:13:49",1,images/city1.png,1,951,1,2,75,1245,3
1154164,40,296,"2015-09-02 17:13:49",1,images/city8.png,1,730,1,2,56.25,1259,3
1154164,41,296,"2015-09-02 17:13:49",1,images/city1.png,1,1662,1,1,31.25,1249,1
1154164,42,296,"2015-09-02 17:13:49",1,images/city7.png,1,0,0,0,0,1254,NA
1154164,43,296,"2015-09-02 17:13:49",1,images/city4.png,1,0,0,0,0,1248,NA
1154164,44,296,"2015-09-02 17:13:49",1,images/city10.png,1,0,0,0,0,1245,NA
1154164,45,296,"2015-09-02 17:13:49",1,images/city6.png,1,0,0,0,0,1234,NA
1154164,46,296,"2015-09-02 17:13:49",1,images/city8.png,1,0,0,0,0,1253,NA
1154164,47,296,"2015-09-02 17:13:49",1,images/city3.png,1,0,0,0,0,1236,NA
1154164,48,296,"2015-09-02 17:13:49",1,images/mountain2.png,0,0,1,0,0,1246,NA
1154164,49,296,"2015-09-02 17:13:49",1,images/mountain5.png,0,0,1,0,0,1243,NA
1154164,50,296,"2015-09-02 17:13:49",1,images/city10.png,1,0,0,0,0,1242,NA
1154164,51,296,"2015-09-02 17:13:49",1,images/city1.png,1,0,0,0,0,1255,NA
1154164,52,296,"2015-09-02 17:13:49",1,images/city10.png,1,1640,1,1,31.25,1253,1
1154164,53,296,"2015-09-02 17:13:49",1,images/city1.png,1,911,1,2,68.75,1260,3
1154164,54,296,"2015-09-02 17:13:49",1,images/city2.png,1,0,0,0,0,1257,NA
1154164,55,296,"2015-09-02 17:13:49",1,images/city9.png,1,0,0,0,0,1244,NA
1154164,56,296,"2015-09-02 17:13:49",1,images/city10.png,1,0,0,0,0,1259,NA
1154164,57,296,"2015-09-02 17:13:49",1,images/city9.png,1,0,0,0,0,1234,NA
1154164,58,296,"2015-09-02 17:13:49",1,images/city5.png,1,0,0,0,0,1229,NA
1154164,59,296,"2015-09-02 17:13:49",1,images/city6.png,1,0,0,0,0,1233,NA
1154164,60,296,"2015-09-02 17:13:49",1,images/city3.png,1,0,0,0,0,1244,NA
1154164,61,296,"2015-09-02 17:13:49",1,images/city7.png,1,0,0,0,0,1248,NA
1154164,62,296,"2015-09-02 17:13:49",1,images/city1.png,1,0,0,0,0,1250,NA
1154164,63,296,"2015-09-02 17:13:49",1,images/city5.png,1,0,0,0,0,1257,NA
1154164,64,296,"2015-09-02 17:13:49",1,images/mountain3.png,0,0,1,0,0,1250,NA
1154164,65,296,"2015-09-02 17:13:49",1,images/city7.png,1,0,0,0,0,1251,NA
1154164,66,296,"2015-09-02 17:13:49",1,images/city10.png,1,0,0,0,0,1249,NA
1154164,67,296,"2015-09-02 17:13:49",1,images/city3.png,1,0,0,0,0,1249,NA
1154164,68,296,"2015-09-02 17:13:49",1,images/city4.png,1,0,0,0,0,1245,NA
1154164,69,296,"2015-09-02 17:13:49",1,images/city5.png,1,0,0,0,0,1243,NA
1154164,70,296,"2015-09-02 17:13:49",1,images/city3.png,1,793,1,2,62.5,1253,7
1154164,71,296,"2015-09-02 17:13:49",1,images/city9.png,1,0,0,0,0,1252,NA
1154164,72,296,"2015-09-02 17:13:49",1,images/city1.png,1,0,0,0,0,1255,NA
1154164,73,296,"2015-09-02 17:13:49",1,images/city6.png,1,2140,1,1,68.75,1262,5
1154164,74,296,"2015-09-02 17:13:49",1,images/mountain1.png,0,0,1,0,0,1256,NA
1154164,75,296,"2015-09-02 17:13:49",1,images/city7.png,1,0,0,0,0,1257,NA
1154164,76,296,"2015-09-02 17:13:49",1,images/city6.png,1,0,0,0,0,1256,NA
1154164,77,296,"2015-09-02 17:13:49",1,images/city10.png,1,0,0,0,0,1243,NA
1154164,78,296,"2015-09-02 17:13:49",1,images/city7.png,1,0,0,0,0,1255,NA
1154164,79,296,"2015-09-02 17:13:49",1,images/city6.png,1,0,0,0,0,1250,NA
1154164,80,296,"2015-09-02 17:13:49",1,images/mountain1.png,0,0,1,0,0,1245,NA
1154164,81,296,"2015-09-02 17:13:49",1,images/city9.png,1,0,0,0,0,1255,NA
1154164,82,296,"2015-09-02 17:13:49",1,images/city6.png,1,0,0,0,0,1259,NA
1154164,83,296,"2015-09-02 17:13:49",1,images/city3.png,1,0,0,0,0,1249,NA
1154164,84,296,"2015-09-02 17:13:49",1,images/city2.png,1,1585,1,1,25,1257,1
1154164,85,296,"2015-09-02 17:13:49",1,images/city10.png,1,0,0,0,0,1248,NA
1154164,86,296,"2015-09-02 17:13:49",1,images/city1.png,1,0,0,0,0,1248,NA
1154164,87,296,"2015-09-02 17:13:49",1,images/city10.png,1,0,0,0,0,1253,NA
1154164,88,296,"2015-09-02 17:13:49",1,images/city9.png,1,0,0,0,0,1244,NA
1154164,89,296,"2015-09-02 17:13:49",1,images/city3.png,1,0,0,0,0,1261,NA
1154164,90,296,"2015-09-02 17:13:49",1,images/city5.png,1,0,0,0,0,1251,NA
1154164,91,296,"2015-09-02 17:13:49",1,images/mountain9.png,0,0,1,0,0,1256,NA
1154164,92,296,"2015-09-02 17:13:49",1,images/city2.png,1,0,0,0,0,1257,NA
1154164,93,296,"2015-09-02 17:13:49",1,images/city3.png,1,0,0,0,0,1250,NA
1154164,94,296,"2015-09-02 17:13:49",1,images/city10.png,1,0,0,0,0,1253,NA
1154164,95,296,"2015-09-02 17:13:49",1,images/city8.png,1,0,0,0,0,1252,NA
1154164,96,296,"2015-09-02 17:13:49",1,images/city2.png,1,0,0,0,0,1260,NA
1154164,97,296,"2015-09-02 17:13:49",1,images/city6.png,1,0,0,0,0,1260,NA
1154164,98,296,"2015-09-02 17:13:49",1,images/city5.png,1,0,0,0,0,1263,NA
1154164,99,296,"2015-09-02 17:13:49",1,images/city6.png,1,837,1,2,62.5,1250,7
1154164,100,296,"2015-09-02 17:13:49",1,images/city1.png,1,0,0,0,0,1256,NA
1154164,101,296,"2015-09-02 17:13:49",1,images/city10.png,1,0,0,0,0,1252,NA
1154164,102,296,"2015-09-02 17:13:49",1,images/city1.png,1,0,0,0,0,1258,NA
1154164,103,296,"2015-09-02 17:13:49",1,images/city6.png,1,0,0,0,0,1252,NA
1154164,104,296,"2015-09-02 17:13:49",1,images/city9.png,1,0,0,0,0,1250,NA
1154164,105,296,"2015-09-02 17:13:49",1,images/city10.png,1,1202,1,1,0,1251,1
1154164,106,296,"2015-09-02 17:13:49",1,images/city1.png,1,867,1,2,68.75,1247,3
1154164,107,296,"2015-09-02 17:13:49",1,images/city5.png,1,0,0,0,0,1245,NA
1154164,108,296,"2015-09-02 17:13:49",1,images/city1.png,1,0,0,0,0,1248,NA
1154164,109,296,"2015-09-02 17:13:49",1,images/city7.png,1,0,0,0,0,1260,NA
1154164,110,296,"2015-09-02 17:13:49",1,images/city10.png,1,978,1,2,75,1250,7
1154164,111,296,"2015-09-02 17:13:49",1,images/city8.png,1,1073,1,2,81.25,1263,2
1154164,112,296,"2015-09-02 17:13:49",1,images/city7.png,1,978,1,2,75,1250,3
1154164,113,296,"2015-09-02 17:13:49",1,images/city9.png,1,807,1,2,62.5,1247,3
1154164,114,296,"2015-09-02 17:13:49",1,images/city6.png,1,905,1,2,68.75,1250,3
1154164,115,296,"2015-09-02 17:13:49",1,images/city4.png,1,710,1,2,56.25,1240,3
1154164,116,296,"2015-09-02 17:13:49",1,images/city7.png,1,1166,1,2,87.5,1264,2
1154164,117,296,"2015-09-02 17:13:49",1,images/city3.png,1,0,0,0,0,1253,NA
1154164,118,296,"2015-09-02 17:13:49",1,images/city7.png,1,0,0,0,0,1253,NA
1154164,119,296,"2015-09-02 17:13:49",1,images/city8.png,1,0,0,0,0,1250,NA
1154164,120,296,"2015-09-02 17:13:49",1,images/mountain9.png,0,0,1,0,0,1255,NA
1154164,121,296,"2015-09-02 17:13:49",1,images/city2.png,1,0,0,0,0,1242,NA
1154164,122,296,"2015-09-02 17:13:49",1,images/city6.png,1,0,0,0,0,1252,NA
1154164,123,296,"2015-09-02 17:13:49",1,images/city4.png,1,0,0,0,0,1245,NA
1154164,124,296,"2015-09-02 17:13:49",1,images/city6.png,1,0,0,0,0,1247,NA
1154164,125,296,"2015-09-02 17:13:49",1,images/city3.png,1,0,0,0,0,6480,NA
1154164,126,296,"2015-09-02 17:13:49",1,images/city4.png,1,0,0,0,0,1244,NA
1154164,127,296,"2015-09-02 17:13:49",1,images/city8.png,1,0,0,0,0,1250,NA
1154164,128,296,"2015-09-02 17:13:49",1,images/city9.png,1,0,0,0,0,1249,NA
1154164,129,296,"2015-09-02 17:13:49",1,images/mountain9.png,0,0,1,0,0,1251,NA
1154164,130,296,"2015-09-02 17:13:49",1,images/city3.png,1,0,0,0,0,1250,NA
1154164,131,296,"2015-09-02 17:13:49",1,images/city1.png,1,0,0,0,0,1249,NA
1154164,132,296,"2015-09-02 17:13:49",1,images/city4.png,1,0,0,0,0,1257,NA
1154164,133,296,"2015-09-02 17:13:49",1,images/city8.png,1,NA,NA,NA,NA,NA,NA
1154164,134,296,"2015-09-02 17:13:49",1,images/city5.png,1,NA,NA,NA,NA,NA,NA
1154164,135,296,"2015-09-02 17:13:49",1,images/city3.png,1,NA,NA,NA,NA,NA,NA
1154164,136,296,"2015-09-02 17:13:49",1,images/city6.png,1,NA,NA,NA,NA,NA,NA
1154164,137,296,"2015-09-02 17:13:49",1,images/city9.png,1,NA,NA,NA,NA,NA,NA
1154164,138,296,"2015-09-02 17:13:49",1,images/city4.png,1,NA,NA,NA,NA,NA,NA
1154164,139,296,"2015-09-02 17:13:49",1,images/mountain6.png,0,NA,NA,NA,NA,NA,NA
1154164,140,296,"2015-09-02 17:13:49",1,images/city4.png,1,NA,NA,NA,NA,NA,NA
1154164,141,296,"2015-09-02 17:13:49",1,images/mountain1.png,0,NA,NA,NA,NA,NA,NA
1154164,142,296,"2015-09-02 17:13:49",1,images/city4.png,1,NA,NA,NA,NA,NA,NA
1154164,143,296,"2015-09-02 17:13:49",1,images/city3.png,1,NA,NA,NA,NA,NA,NA
1154164,144,296,"2015-09-02 17:13:49",1,images/mountain9.png,0,NA,NA,NA,NA,NA,NA
1154164,145,296,"2015-09-02 17:13:49",1,images/city8.png,1,NA,NA,NA,NA,NA,NA
1154164,146,296,"2015-09-02 17:13:49",1,images/mountain1.png,0,NA,NA,NA,NA,NA,NA
1154164,147,296,"2015-09-02 17:13:49",1,images/city3.png,1,NA,NA,NA,NA,NA,NA
1154164,148,296,"2015-09-02 17:13:49",1,images/city8.png,1,NA,NA,NA,NA,NA,NA
1154164,149,296,"2015-09-02 17:13:49",1,images/city5.png,1,NA,NA,NA,NA,NA,NA
1154164,150,296,"2015-09-02 17:13:49",1,images/city7.png,1,NA,NA,NA,NA,NA,NA
1154164,151,296,"2015-09-02 17:13:49",1,images/city10.png,1,NA,NA,NA,NA,NA,NA
1154164,152,296,"2015-09-02 17:13:49",1,images/city1.png,1,NA,NA,NA,NA,NA,NA
1154164,153,296,"2015-09-02 17:13:49",1,images/city5.png,1,NA,NA,NA,NA,NA,NA
1154164,154,296,"2015-09-02 17:13:49",1,images/city9.png,1,NA,NA,NA,NA,NA,NA
1154164,155,296,"2015-09-02 17:13:49",1,images/city2.png,1,NA,NA,NA,NA,NA,NA
1154164,156,296,"2015-09-02 17:13:49",1,images/city5.png,1,NA,NA,NA,NA,NA,NA
1154164,157,296,"2015-09-02 17:13:49",1,images/city7.png,1,NA,NA,NA,NA,NA,NA
1154164,158,296,"2015-09-02 17:13:49",1,images/city6.png,1,NA,NA,NA,NA,NA,NA
1154164,159,296,"2015-09-02 17:13:49",1,images/city5.png,1,NA,NA,NA,NA,NA,NA
1154164,160,296,"2015-09-02 17:13:49",1,images/city6.png,1,NA,NA,NA,NA,NA,NA
1154164,161,296,"2015-09-02 17:13:49",1,images/city1.png,1,NA,NA,NA,NA,NA,NA
1154164,162,296,"2015-09-02 17:13:49",1,images/city9.png,1,NA,NA,NA,NA,NA,NA
1154164,163,296,"2015-09-02 17:13:49",1,images/city8.png,1,NA,NA,NA,NA,NA,NA
1154164,164,296,"2015-09-02 17:13:49",1,images/mountain3.png,0,NA,NA,NA,NA,NA,NA
1154164,165,296,"2015-09-02 17:13:49",1,images/mountain4.png,0,NA,NA,NA,NA,NA,NA
1154164,166,296,"2015-09-02 17:13:49",1,images/city1.png,1,NA,NA,NA,NA,NA,NA
1154164,167,296,"2015-09-02 17:13:49",1,images/city10.png,1,NA,NA,NA,NA,NA,NA
1154164,168,296,"2015-09-02 17:13:49",1,images/city7.png,1,NA,NA,NA,NA,NA,NA
1154164,169,296,"2015-09-02 17:13:49",1,images/city2.png,1,NA,NA,NA,NA,NA,NA
1154164,170,296,"2015-09-02 17:13:49",1,images/city8.png,1,NA,NA,NA,NA,NA,NA
1154164,171,296,"2015-09-02 17:13:49",1,images/city5.png,1,NA,NA,NA,NA,NA,NA
1154164,172,296,"2015-09-02 17:13:49",1,images/mountain9.png,0,NA,NA,NA,NA,NA,NA
1154164,173,296,"2015-09-02 17:13:49",1,images/city10.png,1,NA,NA,NA,NA,NA,NA
1154164,174,296,"2015-09-02 17:13:49",1,images/city8.png,1,NA,NA,NA,NA,NA,NA
1154164,175,296,"2015-09-02 17:13:49",1,images/mountain5.png,0,NA,NA,NA,NA,NA,NA
1154164,176,296,"2015-09-02 17:13:49",1,images/city7.png,1,NA,NA,NA,NA,NA,NA
1154164,177,296,"2015-09-02 17:13:49",1,images/city8.png,1,NA,NA,NA,NA,NA,NA
1154164,178,296,"2015-09-02 17:13:49",1,images/city10.png,1,NA,NA,NA,NA,NA,NA
1154164,179,296,"2015-09-02 17:13:49",1,images/city1.png,1,NA,NA,NA,NA,NA,NA
1154164,180,296,"2015-09-02 17:13:49",1,images/city5.png,1,NA,NA,NA,NA,NA,NA
1154164,181,296,"2015-09-02 17:13:49",1,images/city6.png,1,NA,NA,NA,NA,NA,NA
1154164,182,296,"2015-09-02 17:13:49",1,images/city8.png,1,NA,NA,NA,NA,NA,NA
1154164,183,296,"2015-09-02 17:13:49",1,images/city4.png,1,NA,NA,NA,NA,NA,NA
1154164,184,296,"2015-09-02 17:13:49",1,images/city10.png,1,NA,NA,NA,NA,NA,NA
1154164,185,296,"2015-09-02 17:13:49",1,images/mountain7.png,0,NA,NA,NA,NA,NA,NA
1154164,186,296,"2015-09-02 17:13:49",1,images/city7.png,1,NA,NA,NA,NA,NA,NA
1154164,187,296,"2015-09-02 17:13:49",1,images/city8.png,1,NA,NA,NA,NA,NA,NA
1154164,188,296,"2015-09-02 17:13:49",1,images/city10.png,1,NA,NA,NA,NA,NA,NA
1154164,189,296,"2015-09-02 17:13:49",1,images/city9.png,1,NA,NA,NA,NA,NA,NA
1154164,190,296,"2015-09-02 17:13:49",1,images/city7.png,1,NA,NA,NA,NA,NA,NA
1154164,191,296,"2015-09-02 17:13:49",1,images/city9.png,1,NA,NA,NA,NA,NA,NA
1154164,192,296,"2015-09-02 17:13:49",1,images/city6.png,1,NA,NA,NA,NA,NA,NA
1154164,193,296,"2015-09-02 17:13:49",1,images/mountain5.png,0,NA,NA,NA,NA,NA,NA
1154164,194,296,"2015-09-02 17:13:49",1,images/city2.png,1,NA,NA,NA,NA,NA,NA
1154164,195,296,"2015-09-02 17:13:49",1,images/city8.png,1,NA,NA,NA,NA,NA,NA
1154164,196,296,"2015-09-02 17:13:49",1,images/city9.png,1,NA,NA,NA,NA,NA,NA
1154164,197,296,"2015-09-02 17:13:49",1,images/city2.png,1,NA,NA,NA,NA,NA,NA
1154164,198,296,"2015-09-02 17:13:49",1,images/city7.png,1,NA,NA,NA,NA,NA,NA
1154164,199,296,"2015-09-02 17:13:49",1,images/mountain7.png,0,NA,NA,NA,NA,NA,NA
1154164,200,296,"2015-09-02 17:13:49",1,images/city8.png,1,NA,NA,NA,NA,NA,NA
1154164,201,296,"2015-09-02 17:13:49",1,images/city10.png,1,NA,NA,NA,NA,NA,NA
1154164,202,296,"2015-09-02 17:13:49",1,images/city9.png,1,NA,NA,NA,NA,NA,NA
1154164,203,296,"2015-09-02 17:13:49",1,images/city10.png,1,NA,NA,NA,NA,NA,NA
1154164,204,296,"2015-09-02 17:13:49",1,images/city9.png,1,NA,NA,NA,NA,NA,NA
1154164,205,296,"2015-09-02 17:13:49",1,images/city6.png,1,NA,NA,NA,NA,NA,NA
1154164,206,296,"2015-09-02 17:13:49",1,images/city9.png,1,NA,NA,NA,NA,NA,NA
1154164,207,296,"2015-09-02 17:13:49",1,images/city1.png,1,NA,NA,NA,NA,NA,NA
1154164,208,296,"2015-09-02 17:13:49",1,images/city2.png,1,NA,NA,NA,NA,NA,NA
1154164,209,296,"2015-09-02 17:13:49",1,images/city4.png,1,NA,NA,NA,NA,NA,NA
1154164,210,296,"2015-09-02 17:13:49",1,images/city8.png,1,NA,NA,NA,NA,NA,NA
1154164,211,296,"2015-09-02 17:13:49",1,images/city10.png,1,NA,NA,NA,NA,NA,NA
1154164,212,296,"2015-09-02 17:13:49",1,images/city6.png,1,NA,NA,NA,NA,NA,NA
1154164,213,296,"2015-09-02 17:13:49",1,images/city8.png,1,NA,NA,NA,NA,NA,NA
1154164,214,296,"2015-09-02 17:13:49",1,images/city4.png,1,NA,NA,NA,NA,NA,NA
1154164,215,296,"2015-09-02 17:13:49",1,images/city9.png,1,NA,NA,NA,NA,NA,NA
1154164,216,296,"2015-09-02 17:13:49",1,images/city2.png,1,NA,NA,NA,NA,NA,NA
1154164,217,296,"2015-09-02 17:13:49",1,images/city7.png,1,NA,NA,NA,NA,NA,NA
1154164,218,296,"2015-09-02 17:13:49",1,images/city2.png,1,NA,NA,NA,NA,NA,NA
1154164,219,296,"2015-09-02 17:13:49",1,images/city5.png,1,NA,NA,NA,NA,NA,NA
1154164,220,296,"2015-09-02 17:13:49",1,images/city1.png,1,NA,NA,NA,NA,NA,NA
1154164,221,296,"2015-09-02 17:13:49",1,images/city9.png,1,NA,NA,NA,NA,NA,NA
1154164,222,296,"2015-09-02 17:13:49",1,images/city2.png,1,NA,NA,NA,NA,NA,NA
1154164,223,296,"2015-09-02 17:13:49",1,images/city7.png,1,NA,NA,NA,NA,NA,NA
1154164,224,296,"2015-09-02 17:13:49",1,images/city5.png,1,NA,NA,NA,NA,NA,NA
1154164,225,296,"2015-09-02 17:13:49",1,images/city10.png,1,NA,NA,NA,NA,NA,NA
1154164,226,296,"2015-09-02 17:13:49",1,images/city8.png,1,NA,NA,NA,NA,NA,NA
1154164,227,296,"2015-09-02 17:13:49",1,images/mountain8.png,0,NA,NA,NA,NA,NA,NA
1154164,228,296,"2015-09-02 17:13:49",1,images/city8.png,1,NA,NA,NA,NA,NA,NA
1154164,229,296,"2015-09-02 17:13:49",1,images/city1.png,1,NA,NA,NA,NA,NA,NA
1154164,230,296,"2015-09-02 17:13:49",1,images/city10.png,1,NA,NA,NA,NA,NA,NA
1154164,231,296,"2015-09-02 17:13:49",1,images/city3.png,1,NA,NA,NA,NA,NA,NA
1154164,232,296,"2015-09-02 17:13:49",1,images/city7.png,1,NA,NA,NA,NA,NA,NA
1154164,233,296,"2015-09-02 17:13:49",1,images/city6.png,1,NA,NA,NA,NA,NA,NA
1154164,234,296,"2015-09-02 17:13:49",1,images/city7.png,1,NA,NA,NA,NA,NA,NA
1154164,235,296,"2015-09-02 17:13:49",1,images/city1.png,1,NA,NA,NA,NA,NA,NA
1154164,236,296,"2015-09-02 17:13:49",1,images/city8.png,1,NA,NA,NA,NA,NA,NA
1154164,237,296,"2015-09-02 17:13:49",1,images/city4.png,1,NA,NA,NA,NA,NA,NA
1154164,238,296,"2015-09-02 17:13:49",1,images/city9.png,1,NA,NA,NA,NA,NA,NA
1154164,239,296,"2015-09-02 17:13:49",1,images/city2.png,1,NA,NA,NA,NA,NA,NA
1154164,240,296,"2015-09-02 17:13:49",1,images/city4.png,1,NA,NA,NA,NA,NA,NA
1154164,241,296,"2015-09-02 17:13:49",1,images/city8.png,1,NA,NA,NA,NA,NA,NA
1154164,242,296,"2015-09-02 17:13:49",1,images/city4.png,1,NA,NA,NA,NA,NA,NA
1154164,243,296,"2015-09-02 17:13:49",1,images/mountain2.png,0,NA,NA,NA,NA,NA,NA
1154164,244,296,"2015-09-02 17:13:49",1,images/city9.png,1,NA,NA,NA,NA,NA,NA
1154164,245,296,"2015-09-02 17:13:49",1,images/city10.png,1,NA,NA,NA,NA,NA,NA
1154164,246,296,"2015-09-02 17:13:49",1,images/city5.png,1,NA,NA,NA,NA,NA,NA
1154164,247,296,"2015-09-02 17:13:49",1,images/city9.png,1,NA,NA,NA,NA,NA,NA
1154164,248,296,"2015-09-02 17:13:49",1,images/city1.png,1,NA,NA,NA,NA,NA,NA
1154164,249,296,"2015-09-02 17:13:49",1,images/city4.png,1,NA,NA,NA,NA,NA,NA
1154164,250,296,"2015-09-02 17:13:49",1,images/mountain7.png,0,NA,NA,NA,NA,NA,NA
1154164,251,296,"2015-09-02 17:13:49",1,images/city6.png,1,NA,NA,NA,NA,NA,NA
1154164,252,296,"2015-09-02 17:13:49",1,images/city8.png,1,NA,NA,NA,NA,NA,NA
1154164,253,296,"2015-09-02 17:13:49",1,images/mountain7.png,0,NA,NA,NA,NA,NA,NA
1154164,254,296,"2015-09-02 17:13:49",1,images/city3.png,1,NA,NA,NA,NA,NA,NA
1154164,255,296,"2015-09-02 17:13:49",1,images/city2.png,1,NA,NA,NA,NA,NA,NA
1154164,256,296,"2015-09-02 17:13:49",1,images/city9.png,1,NA,NA,NA,NA,NA,NA
1154164,257,296,"2015-09-02 17:13:49",1,images/mountain4.png,0,NA,NA,NA,NA,NA,NA
1154164,258,296,"2015-09-02 17:13:49",1,images/city10.png,1,NA,NA,NA,NA,NA,NA
1154164,259,296,"2015-09-02 17:13:49",1,images/city3.png,1,NA,NA,NA,NA,NA,NA
1154164,260,296,"2015-09-02 17:13:49",1,images/mountain1.png,0,NA,NA,NA,NA,NA,NA
1154164,261,296,"2015-09-02 17:13:49",1,images/city2.png,1,NA,NA,NA,NA,NA,NA
1154164,262,296,"2015-09-02 17:13:49",1,images/mountain4.png,0,NA,NA,NA,NA,NA,NA
1154164,263,296,"2015-09-02 17:13:49",1,images/city7.png,1,NA,NA,NA,NA,NA,NA
1154164,264,296,"2015-09-02 17:13:49",1,images/city8.png,1,NA,NA,NA,NA,NA,NA
1154164,265,296,"2015-09-02 17:13:49",1,images/city4.png,1,NA,NA,NA,NA,NA,NA
1154164,266,296,"2015-09-02 17:13:49",1,images/city3.png,1,NA,NA,NA,NA,NA,NA
1154164,267,296,"2015-09-02 17:13:49",1,images/city6.png,1,NA,NA,NA,NA,NA,NA
1154164,268,296,"2015-09-02 17:13:49",1,images/city4.png,1,NA,NA,NA,NA,NA,NA
1154164,269,296,"2015-09-02 17:13:49",1,images/city5.png,1,NA,NA,NA,NA,NA,NA
1154164,270,296,"2015-09-02 17:13:49",1,images/city3.png,1,NA,NA,NA,NA,NA,NA
1154164,271,296,"2015-09-02 17:13:49",1,images/city6.png,1,NA,NA,NA,NA,NA,NA
1154164,272,296,"2015-09-02 17:13:49",1,images/city2.png,1,NA,NA,NA,NA,NA,NA
1154164,273,296,"2015-09-02 17:13:49",1,images/city6.png,1,NA,NA,NA,NA,NA,NA
1154164,274,296,"2015-09-02 17:13:49",1,images/city4.png,1,NA,NA,NA,NA,NA,NA
1154164,275,296,"2015-09-02 17:13:49",1,images/city3.png,1,NA,NA,NA,NA,NA,NA
1154164,276,296,"2015-09-02 17:13:49",1,images/mountain8.png,0,NA,NA,NA,NA,NA,NA
1154164,277,296,"2015-09-02 17:13:49",1,images/mountain9.png,0,NA,NA,NA,NA,NA,NA
1154164,278,296,"2015-09-02 17:13:49",1,images/city10.png,1,NA,NA,NA,NA,NA,NA
1154164,279,296,"2015-09-02 17:13:49",1,images/city8.png,1,NA,NA,NA,NA,NA,NA
1154164,280,296,"2015-09-02 17:13:49",1,images/city10.png,1,NA,NA,NA,NA,NA,NA
1154164,281,296,"2015-09-02 17:13:49",1,images/city9.png,1,NA,NA,NA,NA,NA,NA
1154164,282,296,"2015-09-02 17:13:49",1,images/city10.png,1,NA,NA,NA,NA,NA,NA
1154164,283,296,"2015-09-02 17:13:49",1,images/city1.png,1,NA,NA,NA,NA,NA,NA
1154164,284,296,"2015-09-02 17:13:49",1,images/city5.png,1,NA,NA,NA,NA,NA,NA
1154164,285,296,"2015-09-02 17:13:49",1,images/city1.png,1,NA,NA,NA,NA,NA,NA
1154164,286,296,"2015-09-02 17:13:49",1,images/city10.png,1,NA,NA,NA,NA,NA,NA
1154164,287,296,"2015-09-02 17:13:49",1,images/city2.png,1,NA,NA,NA,NA,NA,NA
1154164,288,296,"2015-09-02 17:13:49",1,images/city3.png,1,NA,NA,NA,NA,NA,NA
1154164,289,296,"2015-09-02 17:13:49",1,images/city4.png,1,NA,NA,NA,NA,NA,NA
1154164,290,296,"2015-09-02 17:13:49",1,images/city2.png,1,NA,NA,NA,NA,NA,NA
1154164,291,296,"2015-09-02 17:13:49",1,images/mountain10.png,0,NA,NA,NA,NA,NA,NA
1154164,292,296,"2015-09-02 17:13:49",1,images/city8.png,1,NA,NA,NA,NA,NA,NA
1154164,293,296,"2015-09-02 17:13:49",1,images/city7.png,1,NA,NA,NA,NA,NA,NA
1154164,294,296,"2015-09-02 17:13:49",1,images/city9.png,1,NA,NA,NA,NA,NA,NA
1154164,295,296,"2015-09-02 17:13:49",1,images/city5.png,1,NA,NA,NA,NA,NA,NA
1154164,296,296,"2015-09-02 17:13:49",1,images/city8.png,1,NA,NA,NA,NA,NA,NA
1154164,297,296,"2015-09-02 17:13:49",1,images/city2.png,1,NA,NA,NA,NA,NA,NA
1154164,298,296,"2015-09-02 17:13:49",1,images/city8.png,1,NA,NA,NA,NA,NA,NA
1154164,299,296,"2015-09-02 17:13:49",1,images/city3.png,1,NA,NA,NA,NA,NA,NA
1154164,300,296,"2015-09-02 17:13:49",1,images/city8.png,1,NA,NA,NA,NA,NA,NA
1154164,301,296,"2015-09-02 17:13:49",1,images/city1.png,1,NA,NA,NA,NA,NA,NA
1154164,302,296,"2015-09-02 17:13:49",1,images/city5.png,1,NA,NA,NA,NA,NA,NA
1154164,303,296,"2015-09-02 17:13:49",1,images/city3.png,1,NA,NA,NA,NA,NA,NA
1154164,304,296,"2015-09-02 17:13:49",1,images/city8.png,1,NA,NA,NA,NA,NA,NA
1154164,305,296,"2015-09-02 17:13:49",1,images/city3.png,1,NA,NA,NA,NA,NA,NA
1154164,306,296,"2015-09-02 17:13:49",1,images/city5.png,1,NA,NA,NA,NA,NA,NA
1154164,307,296,"2015-09-02 17:13:49",1,images/city1.png,1,NA,NA,NA,NA,NA,NA
1154164,308,296,"2015-09-02 17:13:49",1,images/city8.png,1,NA,NA,NA,NA,NA,NA
1154164,309,296,"2015-09-02 17:13:49",1,images/mountain8.png,0,NA,NA,NA,NA,NA,NA
1154164,310,296,"2015-09-02 17:13:49",1,images/city2.png,1,NA,NA,NA,NA,NA,NA
1154164,311,296,"2015-09-02 17:13:49",1,images/city3.png,1,NA,NA,NA,NA,NA,NA
1154164,312,296,"2015-09-02 17:13:49",1,images/city8.png,1,NA,NA,NA,NA,NA,NA
1154164,313,296,"2015-09-02 17:13:49",1,images/city1.png,1,NA,NA,NA,NA,NA,NA
1154164,314,296,"2015-09-02 17:13:49",1,images/city8.png,1,NA,NA,NA,NA,NA,NA
1154164,315,296,"2015-09-02 17:13:49",1,images/city6.png,1,NA,NA,NA,NA,NA,NA
1154164,316,296,"2015-09-02 17:13:49",1,images/city8.png,1,NA,NA,NA,NA,NA,NA
1154164,317,296,"2015-09-02 17:13:49",1,images/city9.png,1,NA,NA,NA,NA,NA,NA
1154164,318,296,"2015-09-02 17:13:49",1,images/mountain5.png,0,NA,NA,NA,NA,NA,NA
1154164,319,296,"2015-09-02 17:13:49",1,images/city7.png,1,NA,NA,NA,NA,NA,NA
1154164,320,296,"2015-09-02 17:13:49",1,images/city9.png,1,NA,NA,NA,NA,NA,NA
1154164,321,296,"2015-09-02 17:13:49",1,images/city2.png,1,NA,NA,NA,NA,NA,NA
1154164,322,296,"2015-09-02 17:13:49",1,images/city9.png,1,NA,NA,NA,NA,NA,NA
1154164,323,296,"2015-09-02 17:13:49",1,images/city4.png,1,NA,NA,NA,NA,NA,NA
1154164,324,296,"2015-09-02 17:13:49",1,images/city8.png,1,NA,NA,NA,NA,NA,NA
1154164,325,296,"2015-09-02 17:13:49",1,images/city10.png,1,NA,NA,NA,NA,NA,NA
1154164,326,296,"2015-09-02 17:13:49",1,images/city3.png,1,NA,NA,NA,NA,NA,NA
1154164,327,296,"2015-09-02 17:13:49",1,images/city9.png,1,NA,NA,NA,NA,NA,NA
1154164,328,296,"2015-09-02 17:13:49",1,images/city4.png,1,NA,NA,NA,NA,NA,NA
1154164,329,296,"2015-09-02 17:13:49",1,images/city2.png,1,NA,NA,NA,NA,NA,NA
1154164,330,296,"2015-09-02 17:13:49",1,images/city9.png,1,NA,NA,NA,NA,NA,NA
1154164,331,296,"2015-09-02 17:13:49",1,images/city10.png,1,NA,NA,NA,NA,NA,NA
1154164,332,296,"2015-09-02 17:13:49",2,images/scrambled.png,2,NA,NA,NA,NA,NA,NA
1155500,1,261,"2015-09-03 20:53:33",2,images/city6.png,1,2150,1,2,87.5,2407,2
1155500,2,261,"2015-09-03 20:53:33",2,images/city7.png,1,1742,1,2,68.75,2406,3
1155500,3,261,"2015-09-03 20:53:33",2,images/city8.png,1,1399,1,2,56.25,2406,3
1155500,4,261,"2015-09-03 20:53:33",2,images/mountain6.png,0,0,1,0,0,2407,NA
1155500,5,261,"2015-09-03 20:53:33",2,images/mountain7.png,0,0,1,0,0,2407,NA
1155500,6,261,"2015-09-03 20:53:33",2,images/mountain8.png,0,0,1,0,0,2407,NA
1155500,7,261,"2015-09-03 20:53:33",2,images/city9.png,1,0,0,0,0,2409,NA
1155500,8,261,"2015-09-03 20:53:33",2,images/mountain9.png,0,0,1,0,0,2407,NA
1155500,9,261,"2015-09-03 20:53:33",2,images/city10.png,1,0,0,0,0,2409,NA
1155500,10,261,"2015-09-03 20:53:33",2,images/mountain10.png,0,0,1,0,0,2406,NA
1155500,11,261,"2015-09-03 20:53:33",2,images/scrambled.png,0,NA,NA,NA,NA,NA,NA
1155500,12,261,"2015-09-03 20:53:33",2,images/city1.png,1,0,0,0,0,1222,NA
1155500,13,261,"2015-09-03 20:53:33",2,images/city2.png,1,0,0,0,0,1222,NA
1155500,14,261,"2015-09-03 20:53:33",2,images/city3.png,1,0,0,0,0,1225,NA
1155500,15,261,"2015-09-03 20:53:33",2,images/mountain1.png,0,0,1,0,0,1224,NA
1155500,16,261,"2015-09-03 20:53:33",2,images/mountain2.png,0,0,1,0,0,1223,NA
1155500,17,261,"2015-09-03 20:53:33",2,images/mountain3.png,0,0,1,0,0,1223,NA
1155500,18,261,"2015-09-03 20:53:33",2,images/city4.png,1,0,0,0,0,1224,NA
1155500,19,261,"2015-09-03 20:53:33",2,images/mountain4.png,0,0,1,0,0,1223,NA
1155500,20,261,"2015-09-03 20:53:33",2,images/city5.png,1,0,0,0,0,1223,NA
1155500,21,261,"2015-09-03 20:53:33",2,images/mountain5.png,0,0,1,0,0,1225,NA
1155500,22,261,"2015-09-03 20:53:33",2,images/city6.png,1,0,0,0,0,1224,NA
1155500,23,261,"2015-09-03 20:53:33",2,images/city7.png,1,0,0,0,0,1224,NA
1155500,24,261,"2015-09-03 20:53:33",2,images/city8.png,1,0,0,0,0,1225,NA
1155500,25,261,"2015-09-03 20:53:33",2,images/mountain6.png,0,0,1,0,0,1225,NA
1155500,26,261,"2015-09-03 20:53:33",2,images/mountain7.png,0,0,1,0,0,1223,NA
1155500,27,261,"2015-09-03 20:53:33",2,images/mountain8.png,0,0,1,0,0,1222,NA
1155500,28,261,"2015-09-03 20:53:33",2,images/city9.png,1,0,0,0,0,1222,NA
1155500,29,261,"2015-09-03 20:53:33",2,images/mountain9.png,0,0,1,0,0,1222,NA
1155500,30,261,"2015-09-03 20:53:33",2,images/city10.png,1,0,0,0,0,1221,NA
1155500,31,261,"2015-09-03 20:53:33",2,images/mountain10.png,0,0,1,0,0,1221,NA
1155500,32,261,"2015-09-03 20:53:33",2,images/scrambled.png,2,NA,NA,NA,NA,NA,NA
1155500,33,261,"2015-09-03 20:53:33",1,images/city2.png,1,1237,1,1,0,1224,1
1155500,34,261,"2015-09-03 20:53:33",1,images/city5.png,1,877,1,2,68.75,1222,3
1155500,35,261,"2015-09-03 20:53:33",1,images/mountain1.png,0,0,1,0,0,1223,NA
1155500,36,261,"2015-09-03 20:53:33",1,images/city9.png,1,968,1,2,75,1222,6
1155500,37,261,"2015-09-03 20:53:33",1,images/city3.png,1,889,1,2,68.75,1221,3
1155500,38,261,"2015-09-03 20:53:33",1,images/mountain2.png,0,0,1,0,0,1222,NA
1155500,39,261,"2015-09-03 20:53:33",1,images/city1.png,1,1180,1,2,93.75,1222,2
1155500,40,261,"2015-09-03 20:53:33",1,images/mountain8.png,0,0,1,0,0,1223,NA
1155500,41,261,"2015-09-03 20:53:33",1,images/city1.png,1,1198,1,2,93.75,1224,2
1155500,42,261,"2015-09-03 20:53:33",1,images/city7.png,1,1127,1,2,87.5,1222,2
1155500,43,261,"2015-09-03 20:53:33",1,images/city4.png,1,976,1,2,75,1224,3
1155500,44,261,"2015-09-03 20:53:33",1,images/city10.png,1,873,1,2,68.75,1223,3
1155500,45,261,"2015-09-03 20:53:33",1,images/city6.png,1,1161,1,2,93.75,1224,2
1155500,46,261,"2015-09-03 20:53:33",1,images/city8.png,1,953,1,2,75,1223,3
1155500,47,261,"2015-09-03 20:53:33",1,images/city3.png,1,898,1,2,68.75,1222,3
1155500,48,261,"2015-09-03 20:53:33",1,images/mountain2.png,0,0,1,0,0,1222,NA
1155500,49,261,"2015-09-03 20:53:33",1,images/mountain5.png,0,0,1,0,0,1223,NA
1155500,50,261,"2015-09-03 20:53:33",1,images/city10.png,1,1006,1,2,81.25,1223,2
1155500,51,261,"2015-09-03 20:53:33",1,images/city1.png,1,902,1,2,68.75,1222,3
1155500,52,261,"2015-09-03 20:53:33",1,images/city10.png,1,848,1,2,68.75,1224,3
1155500,53,261,"2015-09-03 20:53:33",1,images/city1.png,1,808,1,2,62.5,1223,3
1155500,54,261,"2015-09-03 20:53:33",1,images/city2.png,1,865,1,2,68.75,1222,3
1155500,55,261,"2015-09-03 20:53:33",1,images/mountain9.png,0,0,1,0,0,1223,NA
1155500,56,261,"2015-09-03 20:53:33",1,images/city10.png,1,907,1,2,68.75,1223,6
1155500,57,261,"2015-09-03 20:53:33",1,images/city9.png,1,924,1,2,75,1223,3
1155500,58,261,"2015-09-03 20:53:33",1,images/city5.png,1,860,1,2,68.75,1223,3
1155500,59,261,"2015-09-03 20:53:33",1,images/city6.png,1,1117,1,2,87.5,1223,2
1155500,60,261,"2015-09-03 20:53:33",1,images/city3.png,1,998,1,2,81.25,1224,2
1155500,61,261,"2015-09-03 20:53:33",1,images/mountain7.png,0,0,1,0,0,1222,NA
1155500,62,261,"2015-09-03 20:53:33",1,images/city1.png,1,1200,1,1,0,1222,1
1155500,63,261,"2015-09-03 20:53:33",1,images/city5.png,1,1104,1,2,87.5,1221,2
1155500,64,261,"2015-09-03 20:53:33",1,images/mountain3.png,0,0,1,0,0,1223,NA
1155500,65,261,"2015-09-03 20:53:33",1,images/city7.png,1,1219,1,2,93.75,1223,2
1155500,66,261,"2015-09-03 20:53:33",1,images/city10.png,1,979,1,2,75,1222,3
1155500,67,261,"2015-09-03 20:53:33",1,images/mountain3.png,0,0,1,0,0,1223,NA
1155500,68,261,"2015-09-03 20:53:33",1,images/city4.png,1,1231,1,1,0,1223,1
1155500,69,261,"2015-09-03 20:53:33",1,images/city5.png,1,1072,1,2,87.5,1224,2
1155500,70,261,"2015-09-03 20:53:33",1,images/city3.png,1,959,1,2,75,1223,3
1155500,71,261,"2015-09-03 20:53:33",1,images/city9.png,1,912,1,2,68.75,1224,3
1155500,72,261,"2015-09-03 20:53:33",1,images/city1.png,1,864,1,2,68.75,1223,3
1155500,73,261,"2015-09-03 20:53:33",1,images/city6.png,1,761,1,2,56.25,1225,3
1155500,74,261,"2015-09-03 20:53:33",1,images/mountain1.png,0,760,-1,2,56.25,1223,3
1155500,75,261,"2015-09-03 20:53:33",1,images/city7.png,1,953,1,2,75,1221,3
1155500,76,261,"2015-09-03 20:53:33",1,images/mountain6.png,0,0,1,0,0,1224,NA
1155500,77,261,"2015-09-03 20:53:33",1,images/city10.png,1,1156,1,2,93.75,1223,2
1155500,78,261,"2015-09-03 20:53:33",1,images/mountain7.png,0,0,1,0,0,1223,NA
1155500,79,261,"2015-09-03 20:53:33",1,images/city6.png,1,1173,1,2,93.75,1223,2
1155500,80,261,"2015-09-03 20:53:33",1,images/mountain1.png,0,0,1,0,0,1222,NA
1155500,81,261,"2015-09-03 20:53:33",1,images/city9.png,1,1030,1,2,81.25,1223,2
1155500,82,261,"2015-09-03 20:53:33",1,images/city6.png,1,1504,1,1,18.75,1223,1
1155500,83,261,"2015-09-03 20:53:33",1,images/city3.png,1,977,1,2,75,1222,3
1155500,84,261,"2015-09-03 20:53:33",1,images/city2.png,1,1097,1,2,87.5,1221,2
1155500,85,261,"2015-09-03 20:53:33",1,images/city10.png,1,899,1,2,68.75,1223,3
1155500,86,261,"2015-09-03 20:53:33",1,images/city1.png,1,908,1,2,68.75,1224,3
1155500,87,261,"2015-09-03 20:53:33",1,images/city10.png,1,1004,1,2,81.25,1223,2
1155500,88,261,"2015-09-03 20:53:33",1,images/city9.png,1,1029,1,2,81.25,1222,2
1155500,89,261,"2015-09-03 20:53:33",1,images/city3.png,1,1047,1,2,81.25,1224,2
1155500,90,261,"2015-09-03 20:53:33",1,images/city5.png,1,1030,1,2,81.25,1222,2
1155500,91,261,"2015-09-03 20:53:33",1,images/mountain9.png,0,0,1,0,0,1222,NA
1155500,92,261,"2015-09-03 20:53:33",1,images/city2.png,1,1282,1,1,6.25,1223,1
1155500,93,261,"2015-09-03 20:53:33",1,images/city3.png,1,1106,1,2,87.5,1222,2
1155500,94,261,"2015-09-03 20:53:33",1,images/city10.png,1,988,1,2,75,1223,3
1155500,95,261,"2015-09-03 20:53:33",1,images/city8.png,1,949,1,2,75,1222,3
1155500,96,261,"2015-09-03 20:53:33",1,images/city2.png,1,911,1,2,68.75,1223,3
1155500,97,261,"2015-09-03 20:53:33",1,images/city6.png,1,912,1,2,68.75,1222,3
1155500,98,261,"2015-09-03 20:53:33",1,images/city5.png,1,881,1,2,68.75,1223,3
1155500,99,261,"2015-09-03 20:53:33",1,images/city6.png,1,1018,1,2,81.25,1223,2
1155500,100,261,"2015-09-03 20:53:33",1,images/city1.png,1,907,1,2,68.75,1223,3
1155500,101,261,"2015-09-03 20:53:33",1,images/city10.png,1,915,1,2,68.75,1223,3
1155500,102,261,"2015-09-03 20:53:33",1,images/city1.png,1,883,1,2,68.75,1223,3
1155500,103,261,"2015-09-03 20:53:33",1,images/mountain6.png,0,0,1,0,0,1223,NA
1155500,104,261,"2015-09-03 20:53:33",1,images/city9.png,1,1077,1,2,87.5,1223,2
1155500,105,261,"2015-09-03 20:53:33",1,images/city10.png,1,902,1,2,68.75,1221,3
1155500,106,261,"2015-09-03 20:53:33",1,images/city1.png,1,865,1,2,68.75,1223,3
1155500,107,261,"2015-09-03 20:53:33",1,images/city5.png,1,810,1,2,62.5,1224,3
1155500,108,261,"2015-09-03 20:53:33",1,images/city1.png,1,866,1,2,68.75,1223,3
1155500,109,261,"2015-09-03 20:53:33",1,images/city7.png,1,1059,1,2,81.25,1224,2
1155500,110,261,"2015-09-03 20:53:33",1,images/mountain10.png,0,0,1,0,0,1222,NA
1155500,111,261,"2015-09-03 20:53:33",1,images/city8.png,1,980,1,2,75,1223,6
1155500,112,261,"2015-09-03 20:53:33",1,images/city7.png,1,1044,1,2,81.25,1223,2
1155500,113,261,"2015-09-03 20:53:33",1,images/city9.png,1,933,1,2,75,1224,3
1155500,114,261,"2015-09-03 20:53:33",1,images/city6.png,1,877,1,2,68.75,1223,3
1155500,115,261,"2015-09-03 20:53:33",1,images/city4.png,1,958,1,2,75,1224,3
1155500,116,261,"2015-09-03 20:53:33",1,images/city7.png,1,917,1,2,75,1221,3
1155500,117,261,"2015-09-03 20:53:33",1,images/city3.png,1,920,1,2,75,1224,3
1155500,118,261,"2015-09-03 20:53:33",1,images/mountain7.png,0,0,1,0,0,1224,NA
1155500,119,261,"2015-09-03 20:53:33",1,images/city8.png,1,1023,1,2,81.25,1223,2
1155500,120,261,"2015-09-03 20:53:33",1,images/mountain9.png,0,0,1,0,0,1222,NA
1155500,121,261,"2015-09-03 20:53:33",1,images/city2.png,1,969,1,2,75,1221,6
1155500,122,261,"2015-09-03 20:53:33",1,images/city6.png,1,1083,1,2,87.5,1223,2
1155500,123,261,"2015-09-03 20:53:33",1,images/city4.png,1,972,1,2,75,1222,3
1155500,124,261,"2015-09-03 20:53:33",1,images/city6.png,1,1005,1,2,81.25,1223,2
1155500,125,261,"2015-09-03 20:53:33",1,images/city3.png,1,1086,1,2,87.5,1223,2
1155500,126,261,"2015-09-03 20:53:33",1,images/city4.png,1,1103,1,2,87.5,1222,2
1155500,127,261,"2015-09-03 20:53:33",1,images/city8.png,1,1105,1,2,87.5,1223,2
1155500,128,261,"2015-09-03 20:53:33",1,images/city9.png,1,1122,1,2,87.5,1224,2
1155500,129,261,"2015-09-03 20:53:33",1,images/mountain9.png,0,0,1,0,0,1223,NA
1155500,130,261,"2015-09-03 20:53:33",1,images/city3.png,1,931,1,2,75,1224,6
1155500,131,261,"2015-09-03 20:53:33",1,images/city1.png,1,915,1,2,68.75,1224,3
1155500,132,261,"2015-09-03 20:53:33",1,images/city4.png,1,1163,1,2,93.75,1223,2
1155500,133,261,"2015-09-03 20:53:33",1,images/city8.png,1,NA,NA,NA,NA,NA,NA
1155500,134,261,"2015-09-03 20:53:33",1,images/city5.png,1,NA,NA,NA,NA,NA,NA
1155500,135,261,"2015-09-03 20:53:33",1,images/city3.png,1,NA,NA,NA,NA,NA,NA
1155500,136,261,"2015-09-03 20:53:33",1,images/mountain6.png,0,NA,NA,NA,NA,NA,NA
1155500,137,261,"2015-09-03 20:53:33",1,images/city9.png,1,NA,NA,NA,NA,NA,NA
1155500,138,261,"2015-09-03 20:53:33",1,images/city4.png,1,NA,NA,NA,NA,NA,NA
1155500,139,261,"2015-09-03 20:53:33",1,images/mountain6.png,0,NA,NA,NA,NA,NA,NA
1155500,140,261,"2015-09-03 20:53:33",1,images/city4.png,1,NA,NA,NA,NA,NA,NA
1155500,141,261,"2015-09-03 20:53:33",1,images/mountain1.png,0,NA,NA,NA,NA,NA,NA
1155500,142,261,"2015-09-03 20:53:33",1,images/city4.png,1,NA,NA,NA,NA,NA,NA
1155500,143,261,"2015-09-03 20:53:33",1,images/city3.png,1,NA,NA,NA,NA,NA,NA
1155500,144,261,"2015-09-03 20:53:33",1,images/mountain9.png,0,NA,NA,NA,NA,NA,NA
1155500,145,261,"2015-09-03 20:53:33",1,images/city8.png,1,NA,NA,NA,NA,NA,NA
1155500,146,261,"2015-09-03 20:53:33",1,images/mountain1.png,0,NA,NA,NA,NA,NA,NA
1155500,147,261,"2015-09-03 20:53:33",1,images/city3.png,1,NA,NA,NA,NA,NA,NA
1155500,148,261,"2015-09-03 20:53:33",1,images/city8.png,1,NA,NA,NA,NA,NA,NA
1155500,149,261,"2015-09-03 20:53:33",1,images/city5.png,1,NA,NA,NA,NA,NA,NA
1155500,150,261,"2015-09-03 20:53:33",1,images/city7.png,1,NA,NA,NA,NA,NA,NA
1155500,151,261,"2015-09-03 20:53:33",1,images/city10.png,1,NA,NA,NA,NA,NA,NA
1155500,152,261,"2015-09-03 20:53:33",1,images/city1.png,1,NA,NA,NA,NA,NA,NA
1155500,153,261,"2015-09-03 20:53:33",1,images/city5.png,1,NA,NA,NA,NA,NA,NA
1155500,154,261,"2015-09-03 20:53:33",1,images/city9.png,1,NA,NA,NA,NA,NA,NA
1155500,155,261,"2015-09-03 20:53:33",1,images/city2.png,1,NA,NA,NA,NA,NA,NA
1155500,156,261,"2015-09-03 20:53:33",1,images/city5.png,1,NA,NA,NA,NA,NA,NA
1155500,157,261,"2015-09-03 20:53:33",1,images/city7.png,1,NA,NA,NA,NA,NA,NA
1155500,158,261,"2015-09-03 20:53:33",1,images/city6.png,1,NA,NA,NA,NA,NA,NA
1155500,159,261,"2015-09-03 20:53:33",1,images/city5.png,1,NA,NA,NA,NA,NA,NA
1155500,160,261,"2015-09-03 20:53:33",1,images/city6.png,1,NA,NA,NA,NA,NA,NA
1155500,161,261,"2015-09-03 20:53:33",1,images/city1.png,1,NA,NA,NA,NA,NA,NA
1155500,162,261,"2015-09-03 20:53:33",1,images/city9.png,1,NA,NA,NA,NA,NA,NA
1155500,163,261,"2015-09-03 20:53:33",1,images/city8.png,1,NA,NA,NA,NA,NA,NA
1155500,164,261,"2015-09-03 20:53:33",1,images/mountain3.png,0,NA,NA,NA,NA,NA,NA
1155500,165,261,"2015-09-03 20:53:33",1,images/mountain4.png,0,NA,NA,NA,NA,NA,NA
1155500,166,261,"2015-09-03 20:53:33",1,images/city1.png,1,NA,NA,NA,NA,NA,NA
1155500,167,261,"2015-09-03 20:53:33",1,images/city10.png,1,NA,NA,NA,NA,NA,NA
1155500,168,261,"2015-09-03 20:53:33",1,images/city7.png,1,NA,NA,NA,NA,NA,NA
1155500,169,261,"2015-09-03 20:53:33",1,images/city2.png,1,NA,NA,NA,NA,NA,NA
1155500,170,261,"2015-09-03 20:53:33",1,images/city8.png,1,NA,NA,NA,NA,NA,NA
1155500,171,261,"2015-09-03 20:53:33",1,images/city5.png,1,NA,NA,NA,NA,NA,NA
1155500,172,261,"2015-09-03 20:53:33",1,images/mountain9.png,0,NA,NA,NA,NA,NA,NA
1155500,173,261,"2015-09-03 20:53:33",1,images/city10.png,1,NA,NA,NA,NA,NA,NA
1155500,174,261,"2015-09-03 20:53:33",1,images/city8.png,1,NA,NA,NA,NA,NA,NA
1155500,175,261,"2015-09-03 20:53:33",1,images/mountain5.png,0,NA,NA,NA,NA,NA,NA
1155500,176,261,"2015-09-03 20:53:33",1,images/city7.png,1,NA,NA,NA,NA,NA,NA
1155500,177,261,"2015-09-03 20:53:33",1,images/city8.png,1,NA,NA,NA,NA,NA,NA
1155500,178,261,"2015-09-03 20:53:33",1,images/city10.png,1,NA,NA,NA,NA,NA,NA
1155500,179,261,"2015-09-03 20:53:33",1,images/city1.png,1,NA,NA,NA,NA,NA,NA
1155500,180,261,"2015-09-03 20:53:33",1,images/city5.png,1,NA,NA,NA,NA,NA,NA
1155500,181,261,"2015-09-03 20:53:33",1,images/city6.png,1,NA,NA,NA,NA,NA,NA
1155500,182,261,"2015-09-03 20:53:33",1,images/city8.png,1,NA,NA,NA,NA,NA,NA
1155500,183,261,"2015-09-03 20:53:33",1,images/city4.png,1,NA,NA,NA,NA,NA,NA
1155500,184,261,"2015-09-03 20:53:33",1,images/city10.png,1,NA,NA,NA,NA,NA,NA
1155500,185,261,"2015-09-03 20:53:33",1,images/mountain7.png,0,NA,NA,NA,NA,NA,NA
1155500,186,261,"2015-09-03 20:53:33",1,images/city7.png,1,NA,NA,NA,NA,NA,NA
1155500,187,261,"2015-09-03 20:53:33",1,images/city8.png,1,NA,NA,NA,NA,NA,NA
1155500,188,261,"2015-09-03 20:53:33",1,images/city10.png,1,NA,NA,NA,NA,NA,NA
1155500,189,261,"2015-09-03 20:53:33",1,images/city9.png,1,NA,NA,NA,NA,NA,NA
1155500,190,261,"2015-09-03 20:53:33",1,images/city7.png,1,NA,NA,NA,NA,NA,NA
1155500,191,261,"2015-09-03 20:53:33",1,images/city9.png,1,NA,NA,NA,NA,NA,NA
1155500,192,261,"2015-09-03 20:53:33",1,images/city6.png,1,NA,NA,NA,NA,NA,NA
1155500,193,261,"2015-09-03 20:53:33",1,images/mountain5.png,0,NA,NA,NA,NA,NA,NA
1155500,194,261,"2015-09-03 20:53:33",1,images/city2.png,1,NA,NA,NA,NA,NA,NA
1155500,195,261,"2015-09-03 20:53:33",1,images/city8.png,1,NA,NA,NA,NA,NA,NA
1155500,196,261,"2015-09-03 20:53:33",1,images/city9.png,1,NA,NA,NA,NA,NA,NA
1155500,197,261,"2015-09-03 20:53:33",1,images/city2.png,1,NA,NA,NA,NA,NA,NA
1155500,198,261,"2015-09-03 20:53:33",1,images/city7.png,1,NA,NA,NA,NA,NA,NA
1155500,199,261,"2015-09-03 20:53:33",1,images/mountain7.png,0,NA,NA,NA,NA,NA,NA
1155500,200,261,"2015-09-03 20:53:33",1,images/city8.png,1,NA,NA,NA,NA,NA,NA
1155500,201,261,"2015-09-03 20:53:33",1,images/city10.png,1,NA,NA,NA,NA,NA,NA
1155500,202,261,"2015-09-03 20:53:33",1,images/city9.png,1,NA,NA,NA,NA,NA,NA
1155500,203,261,"2015-09-03 20:53:33",1,images/city10.png,1,NA,NA,NA,NA,NA,NA
1155500,204,261,"2015-09-03 20:53:33",1,images/city9.png,1,NA,NA,NA,NA,NA,NA
1155500,205,261,"2015-09-03 20:53:33",1,images/city6.png,1,NA,NA,NA,NA,NA,NA
1155500,206,261,"2015-09-03 20:53:33",1,images/city9.png,1,NA,NA,NA,NA,NA,NA
1155500,207,261,"2015-09-03 20:53:33",1,images/city1.png,1,NA,NA,NA,NA,NA,NA
1155500,208,261,"2015-09-03 20:53:33",1,images/city2.png,1,NA,NA,NA,NA,NA,NA
1155500,209,261,"2015-09-03 20:53:33",1,images/city4.png,1,NA,NA,NA,NA,NA,NA
1155500,210,261,"2015-09-03 20:53:33",1,images/city8.png,1,NA,NA,NA,NA,NA,NA
1155500,211,261,"2015-09-03 20:53:33",1,images/city10.png,1,NA,NA,NA,NA,NA,NA
1155500,212,261,"2015-09-03 20:53:33",1,images/city6.png,1,NA,NA,NA,NA,NA,NA
1155500,213,261,"2015-09-03 20:53:33",1,images/mountain8.png,0,NA,NA,NA,NA,NA,NA
1155500,214,261,"2015-09-03 20:53:33",1,images/city4.png,1,NA,NA,NA,NA,NA,NA
1155500,215,261,"2015-09-03 20:53:33",1,images/city9.png,1,NA,NA,NA,NA,NA,NA
1155500,216,261,"2015-09-03 20:53:33",1,images/city2.png,1,NA,NA,NA,NA,NA,NA
1155500,217,261,"2015-09-03 20:53:33",1,images/city7.png,1,NA,NA,NA,NA,NA,NA
1155500,218,261,"2015-09-03 20:53:33",1,images/city2.png,1,NA,NA,NA,NA,NA,NA
1155500,219,261,"2015-09-03 20:53:33",1,images/city5.png,1,NA,NA,NA,NA,NA,NA
1155500,220,261,"2015-09-03 20:53:33",1,images/city1.png,1,NA,NA,NA,NA,NA,NA
1155500,221,261,"2015-09-03 20:53:33",1,images/city9.png,1,NA,NA,NA,NA,NA,NA
1155500,222,261,"2015-09-03 20:53:33",1,images/city2.png,1,NA,NA,NA,NA,NA,NA
1155500,223,261,"2015-09-03 20:53:33",1,images/city7.png,1,NA,NA,NA,NA,NA,NA
1155500,224,261,"2015-09-03 20:53:33",1,images/city5.png,1,NA,NA,NA,NA,NA,NA
1155500,225,261,"2015-09-03 20:53:33",1,images/city10.png,1,NA,NA,NA,NA,NA,NA
1155500,226,261,"2015-09-03 20:53:33",1,images/city8.png,1,NA,NA,NA,NA,NA,NA
1155500,227,261,"2015-09-03 20:53:33",1,images/mountain8.png,0,NA,NA,NA,NA,NA,NA
1155500,228,261,"2015-09-03 20:53:33",1,images/city8.png,1,NA,NA,NA,NA,NA,NA
1155500,229,261,"2015-09-03 20:53:33",1,images/city1.png,1,NA,NA,NA,NA,NA,NA
1155500,230,261,"2015-09-03 20:53:33",1,images/city10.png,1,NA,NA,NA,NA,NA,NA
1155500,231,261,"2015-09-03 20:53:33",1,images/city3.png,1,NA,NA,NA,NA,NA,NA
1155500,232,261,"2015-09-03 20:53:33",1,images/city7.png,1,NA,NA,NA,NA,NA,NA
1155500,233,261,"2015-09-03 20:53:33",1,images/city6.png,1,NA,NA,NA,NA,NA,NA
1155500,234,261,"2015-09-03 20:53:33",1,images/city7.png,1,NA,NA,NA,NA,NA,NA
1155500,235,261,"2015-09-03 20:53:33",1,images/city1.png,1,NA,NA,NA,NA,NA,NA
1155500,236,261,"2015-09-03 20:53:33",1,images/city8.png,1,NA,NA,NA,NA,NA,NA
1155500,237,261,"2015-09-03 20:53:33",1,images/city4.png,1,NA,NA,NA,NA,NA,NA
1155500,238,261,"2015-09-03 20:53:33",1,images/city9.png,1,NA,NA,NA,NA,NA,NA
1155500,239,261,"2015-09-03 20:53:33",1,images/mountain2.png,0,NA,NA,NA,NA,NA,NA
1155500,240,261,"2015-09-03 20:53:33",1,images/city4.png,1,NA,NA,NA,NA,NA,NA
1155500,241,261,"2015-09-03 20:53:33",1,images/city8.png,1,NA,NA,NA,NA,NA,NA
1155500,242,261,"2015-09-03 20:53:33",1,images/city4.png,1,NA,NA,NA,NA,NA,NA
1155500,243,261,"2015-09-03 20:53:33",1,images/mountain2.png,0,NA,NA,NA,NA,NA,NA
1155500,244,261,"2015-09-03 20:53:33",1,images/city9.png,1,NA,NA,NA,NA,NA,NA
1155500,245,261,"2015-09-03 20:53:33",1,images/city10.png,1,NA,NA,NA,NA,NA,NA
1155500,246,261,"2015-09-03 20:53:33",1,images/city5.png,1,NA,NA,NA,NA,NA,NA
1155500,247,261,"2015-09-03 20:53:33",1,images/city9.png,1,NA,NA,NA,NA,NA,NA
1155500,248,261,"2015-09-03 20:53:33",1,images/city1.png,1,NA,NA,NA,NA,NA,NA
1155500,249,261,"2015-09-03 20:53:33",1,images/city4.png,1,NA,NA,NA,NA,NA,NA
1155500,250,261,"2015-09-03 20:53:33",1,images/mountain7.png,0,NA,NA,NA,NA,NA,NA
1155500,251,261,"2015-09-03 20:53:33",1,images/city6.png,1,NA,NA,NA,NA,NA,NA
1155500,252,261,"2015-09-03 20:53:33",1,images/city8.png,1,NA,NA,NA,NA,NA,NA
1155500,253,261,"2015-09-03 20:53:33",1,images/mountain7.png,0,NA,NA,NA,NA,NA,NA
1155500,254,261,"2015-09-03 20:53:33",1,images/city3.png,1,NA,NA,NA,NA,NA,NA
1155500,255,261,"2015-09-03 20:53:33",1,images/city2.png,1,NA,NA,NA,NA,NA,NA
1155500,256,261,"2015-09-03 20:53:33",1,images/city9.png,1,NA,NA,NA,NA,NA,NA
1155500,257,261,"2015-09-03 20:53:33",1,images/mountain4.png,0,NA,NA,NA,NA,NA,NA
1155500,258,261,"2015-09-03 20:53:33",1,images/city10.png,1,NA,NA,NA,NA,NA,NA
1155500,259,261,"2015-09-03 20:53:33",1,images/city3.png,1,NA,NA,NA,NA,NA,NA
1155500,260,261,"2015-09-03 20:53:33",1,images/mountain1.png,0,NA,NA,NA,NA,NA,NA
1155500,261,261,"2015-09-03 20:53:33",1,images/city2.png,1,NA,NA,NA,NA,NA,NA
1155500,262,261,"2015-09-03 20:53:33",1,images/mountain4.png,0,NA,NA,NA,NA,NA,NA
1155500,263,261,"2015-09-03 20:53:33",1,images/city7.png,1,NA,NA,NA,NA,NA,NA
1155500,264,261,"2015-09-03 20:53:33",1,images/city8.png,1,NA,NA,NA,NA,NA,NA
1155500,265,261,"2015-09-03 20:53:33",1,images/city4.png,1,NA,NA,NA,NA,NA,NA
1155500,266,261,"2015-09-03 20:53:33",1,images/city3.png,1,NA,NA,NA,NA,NA,NA
1155500,267,261,"2015-09-03 20:53:33",1,images/city6.png,1,NA,NA,NA,NA,NA,NA
1155500,268,261,"2015-09-03 20:53:33",1,images/city4.png,1,NA,NA,NA,NA,NA,NA
1155500,269,261,"2015-09-03 20:53:33",1,images/mountain5.png,0,NA,NA,NA,NA,NA,NA
1155500,270,261,"2015-09-03 20:53:33",1,images/city3.png,1,NA,NA,NA,NA,NA,NA
1155500,271,261,"2015-09-03 20:53:33",1,images/city6.png,1,NA,NA,NA,NA,NA,NA
1155500,272,261,"2015-09-03 20:53:33",1,images/city2.png,1,NA,NA,NA,NA,NA,NA
1155500,273,261,"2015-09-03 20:53:33",1,images/city6.png,1,NA,NA,NA,NA,NA,NA
1155500,274,261,"2015-09-03 20:53:33",1,images/city4.png,1,NA,NA,NA,NA,NA,NA
1155500,275,261,"2015-09-03 20:53:33",1,images/city3.png,1,NA,NA,NA,NA,NA,NA
1155500,276,261,"2015-09-03 20:53:33",1,images/mountain8.png,0,NA,NA,NA,NA,NA,NA
1155500,277,261,"2015-09-03 20:53:33",1,images/mountain9.png,0,NA,NA,NA,NA,NA,NA
1155500,278,261,"2015-09-03 20:53:33",1,images/city10.png,1,NA,NA,NA,NA,NA,NA
1155500,279,261,"2015-09-03 20:53:33",1,images/city8.png,1,NA,NA,NA,NA,NA,NA
1155500,280,261,"2015-09-03 20:53:33",1,images/city10.png,1,NA,NA,NA,NA,NA,NA
1155500,281,261,"2015-09-03 20:53:33",1,images/city9.png,1,NA,NA,NA,NA,NA,NA
1155500,282,261,"2015-09-03 20:53:33",1,images/city10.png,1,NA,NA,NA,NA,NA,NA
1155500,283,261,"2015-09-03 20:53:33",1,images/city1.png,1,NA,NA,NA,NA,NA,NA
1155500,284,261,"2015-09-03 20:53:33",1,images/city5.png,1,NA,NA,NA,NA,NA,NA
1155500,285,261,"2015-09-03 20:53:33",1,images/city1.png,1,NA,NA,NA,NA,NA,NA
1155500,286,261,"2015-09-03 20:53:33",1,images/city10.png,1,NA,NA,NA,NA,NA,NA
1155500,287,261,"2015-09-03 20:53:33",1,images/city2.png,1,NA,NA,NA,NA,NA,NA
1155500,288,261,"2015-09-03 20:53:33",1,images/city3.png,1,NA,NA,NA,NA,NA,NA
1155500,289,261,"2015-09-03 20:53:33",1,images/city4.png,1,NA,NA,NA,NA,NA,NA
1155500,290,261,"2015-09-03 20:53:33",1,images/city2.png,1,NA,NA,NA,NA,NA,NA
1155500,291,261,"2015-09-03 20:53:33",1,images/mountain10.png,0,NA,NA,NA,NA,NA,NA
