sitting_id,trial,duration,start_time,type,correctResponse,response,correct,rt
1154058,1,384,"2015-09-02 15:23:09",prac_test,3,3,1,5817
1154058,2,384,"2015-09-02 15:23:09",prac_test,1,1,1,1965
1154058,3,384,"2015-09-02 15:23:09",inst2,0,0,1,1456
1154058,4,384,"2015-09-02 15:23:09",testbig,2,2,1,1656
1154058,5,384,"2015-09-02 15:23:09",test,1,1,1,6120
1154058,6,384,"2015-09-02 15:23:09",test,4,4,1,5476
1154058,7,384,"2015-09-02 15:23:09",test,3,1,0,3359
1154058,8,384,"2015-09-02 15:23:09",test,1,1,1,1819
1154058,9,384,"2015-09-02 15:23:09",test,3,1,0,65030
1154058,10,384,"2015-09-02 15:23:09",test,3,1,0,397
1154058,11,384,"2015-09-02 15:23:09",test,4,1,0,329
1154157,1,202,"2015-09-02 17:17:56",prac_test,3,3,1,3424
1154157,2,202,"2015-09-02 17:17:56",prac_test,1,1,1,1824
1154157,3,202,"2015-09-02 17:17:56",inst2,0,0,1,1680
1154157,4,202,"2015-09-02 17:17:56",testbig,2,2,1,2141
1154157,5,202,"2015-09-02 17:17:56",test,1,1,1,6324
1154157,6,202,"2015-09-02 17:17:56",test,4,4,1,3235
1154157,7,202,"2015-09-02 17:17:56",test,3,3,1,1902
1154157,8,202,"2015-09-02 17:17:56",test,1,1,1,2278
1154157,9,202,"2015-09-02 17:17:56",test,3,3,1,2151
1154157,10,202,"2015-09-02 17:17:56",test,3,3,1,2981
1154157,11,202,"2015-09-02 17:17:56",test,4,4,1,3595
1154157,12,202,"2015-09-02 17:17:56",test,4,4,1,5807
1154157,13,202,"2015-09-02 17:17:56",test,1,1,1,3959
1154157,14,202,"2015-09-02 17:17:56",test,5,5,1,4263
1154157,15,202,"2015-09-02 17:17:56",test,1,1,1,7571
1154157,16,202,"2015-09-02 17:17:56",test,2,2,1,2848
1154157,17,202,"2015-09-02 17:17:56",test,3,3,1,4803
1154157,18,202,"2015-09-02 17:17:56",test,2,2,1,4799
1154157,19,202,"2015-09-02 17:17:56",test,5,5,1,3530
1154157,20,202,"2015-09-02 17:17:56",test,4,4,1,4754
1154157,21,202,"2015-09-02 17:17:56",test,2,1,0,2935
1154157,22,202,"2015-09-02 17:17:56",test,1,1,1,6287
1154157,23,202,"2015-09-02 17:17:56",test,2,2,1,5132
1154157,24,202,"2015-09-02 17:17:56",test,5,5,1,6445
1154157,25,202,"2015-09-02 17:17:56",testsmall,3,3,1,15139
1154157,26,202,"2015-09-02 17:17:56",test,1,1,1,2419
1154157,27,202,"2015-09-02 17:17:56",testbig,3,3,1,7786
1154157,28,202,"2015-09-02 17:17:56",test,4,4,1,4016
1154157,29,202,"2015-09-02 17:17:56",test,3,3,1,3222
1154157,30,202,"2015-09-02 17:17:56",testbig,5,1,0,9632
1154157,31,202,"2015-09-02 17:17:56",testbig,4,4,1,5644
1154157,32,202,"2015-09-02 17:17:56",test,5,5,1,19115
1154157,33,202,"2015-09-02 17:17:56",test,4,3,0,2252
1154157,34,202,"2015-09-02 17:17:56",test,1,3,0,2218
1154157,35,202,"2015-09-02 17:17:56",testsmall,5,3,0,1134
1154817,1,145,"2015-09-03 09:41:03",prac_test,3,3,1,2576
1154817,2,145,"2015-09-03 09:41:03",prac_test,1,1,1,1535
1154817,3,145,"2015-09-03 09:41:03",inst2,0,0,1,2440
1154817,4,145,"2015-09-03 09:41:03",testbig,2,2,1,2004
1154817,5,145,"2015-09-03 09:41:03",test,1,1,1,1791
1154817,6,145,"2015-09-03 09:41:03",test,4,4,1,2437
1154817,7,145,"2015-09-03 09:41:03",test,3,3,1,1671
1154817,8,145,"2015-09-03 09:41:03",test,1,1,1,1999
1154817,9,145,"2015-09-03 09:41:03",test,3,3,1,2080
1154817,10,145,"2015-09-03 09:41:03",test,3,3,1,2324
1154817,11,145,"2015-09-03 09:41:03",test,4,4,1,8504
1154817,12,145,"2015-09-03 09:41:03",test,4,4,1,2291
1154817,13,145,"2015-09-03 09:41:03",test,1,1,1,2300
1154817,14,145,"2015-09-03 09:41:03",test,5,5,1,2110
1154817,15,145,"2015-09-03 09:41:03",test,1,1,1,2456
1154817,16,145,"2015-09-03 09:41:03",test,2,2,1,2828
1154817,17,145,"2015-09-03 09:41:03",test,3,3,1,1979
1154817,18,145,"2015-09-03 09:41:03",test,2,2,1,3002
1154817,19,145,"2015-09-03 09:41:03",test,5,5,1,1756
1154817,20,145,"2015-09-03 09:41:03",test,4,4,1,2734
1154817,21,145,"2015-09-03 09:41:03",test,2,2,1,10915
1154817,22,145,"2015-09-03 09:41:03",test,1,1,1,2182
1154817,23,145,"2015-09-03 09:41:03",test,2,2,1,2056
1154817,24,145,"2015-09-03 09:41:03",test,5,5,1,2128
1154817,25,145,"2015-09-03 09:41:03",testsmall,3,4,0,2266
1154817,26,145,"2015-09-03 09:41:03",test,1,1,1,2046
1154817,27,145,"2015-09-03 09:41:03",testbig,3,1,0,5138
1154817,28,145,"2015-09-03 09:41:03",test,4,4,1,1984
1154817,29,145,"2015-09-03 09:41:03",test,3,3,1,2437
1154817,30,145,"2015-09-03 09:41:03",testbig,5,1,0,2500
1154817,31,145,"2015-09-03 09:41:03",testbig,4,4,1,2355
1154817,32,145,"2015-09-03 09:41:03",test,5,5,1,3659
1154817,33,145,"2015-09-03 09:41:03",test,4,3,0,3649
1154817,34,145,"2015-09-03 09:41:03",test,1,1,1,2192
1154817,35,145,"2015-09-03 09:41:03",testsmall,5,5,1,11192
1154817,36,145,"2015-09-03 09:41:03",test,3,1,0,3720
1154817,37,145,"2015-09-03 09:41:03",test,3,3,1,2016
1154817,38,145,"2015-09-03 09:41:03",testbig,1,4,0,3110
1156210,1,189,"2015-09-04 14:22:54",prac_test,3,3,1,8464
1156210,2,189,"2015-09-04 14:22:54",prac_test,1,1,1,2429
1156210,3,189,"2015-09-04 14:22:54",inst2,0,0,1,1319
1156210,4,189,"2015-09-04 14:22:54",testbig,2,2,1,2568
1156210,5,189,"2015-09-04 14:22:54",test,1,1,1,10637
1156210,6,189,"2015-09-04 14:22:54",test,4,4,1,3945
1156210,7,189,"2015-09-04 14:22:54",test,3,3,1,2906
1156210,8,189,"2015-09-04 14:22:54",test,1,1,1,2031
1156210,9,189,"2015-09-04 14:22:54",test,3,3,1,2013
1156210,10,189,"2015-09-04 14:22:54",test,3,3,1,2661
1156210,11,189,"2015-09-04 14:22:54",test,4,4,1,2657
1156210,12,189,"2015-09-04 14:22:54",test,4,4,1,1753
1156210,13,189,"2015-09-04 14:22:54",test,1,1,1,2037
1156210,14,189,"2015-09-04 14:22:54",test,5,5,1,2930
1156210,15,189,"2015-09-04 14:22:54",test,1,1,1,1265
1156210,16,189,"2015-09-04 14:22:54",test,2,2,1,2008
1156210,17,189,"2015-09-04 14:22:54",test,3,3,1,1834
1156210,18,189,"2015-09-04 14:22:54",test,2,4,0,2240
1156210,19,189,"2015-09-04 14:22:54",test,5,5,1,1705
1156210,20,189,"2015-09-04 14:22:54",test,4,4,1,1540
1156210,21,189,"2015-09-04 14:22:54",test,2,2,1,1366
1156210,22,189,"2015-09-04 14:22:54",test,1,1,1,1468
1156210,23,189,"2015-09-04 14:22:54",test,2,2,1,2872
1156210,24,189,"2015-09-04 14:22:54",test,5,5,1,1970
1156210,25,189,"2015-09-04 14:22:54",testsmall,3,4,0,2174
1156210,26,189,"2015-09-04 14:22:54",test,1,1,1,1599
1156210,27,189,"2015-09-04 14:22:54",testbig,3,1,0,1438
1156210,28,189,"2015-09-04 14:22:54",test,4,4,1,1600
1156210,29,189,"2015-09-04 14:22:54",test,3,3,1,1893
1156210,30,189,"2015-09-04 14:22:54",testbig,5,1,0,1580
1156210,31,189,"2015-09-04 14:22:54",testbig,4,4,1,1878
1156210,32,189,"2015-09-04 14:22:54",test,5,4,0,7017
1156210,33,189,"2015-09-04 14:22:54",test,4,2,0,4517
1156210,34,189,"2015-09-04 14:22:54",test,1,1,1,1610
1156210,35,189,"2015-09-04 14:22:54",testsmall,5,3,0,2957
1156210,36,189,"2015-09-04 14:22:54",test,3,2,0,8900
1156210,37,189,"2015-09-04 14:22:54",test,3,3,1,43301
1156210,38,189,"2015-09-04 14:22:54",testbig,1,4,0,4518
1156279,1,115,"2015-09-04 15:21:28",prac_test,3,3,1,1888
1156279,2,115,"2015-09-04 15:21:28",prac_test,1,1,1,1017
1156279,3,115,"2015-09-04 15:21:28",inst2,0,0,1,936
1156279,4,115,"2015-09-04 15:21:28",testbig,2,2,1,926
1156279,5,115,"2015-09-04 15:21:28",test,1,1,1,2040
1156279,6,115,"2015-09-04 15:21:28",test,4,4,1,2229
1156279,7,115,"2015-09-04 15:21:28",test,3,3,1,925
1156279,8,115,"2015-09-04 15:21:28",test,1,1,1,1167
1156279,9,115,"2015-09-04 15:21:28",test,3,3,1,1506
1156279,10,115,"2015-09-04 15:21:28",test,3,3,1,3992
1156279,11,115,"2015-09-04 15:21:28",test,4,4,1,3336
1156279,12,115,"2015-09-04 15:21:28",test,4,4,1,2652
1156279,13,115,"2015-09-04 15:21:28",test,1,1,1,1680
1156279,14,115,"2015-09-04 15:21:28",test,5,5,1,2472
1156279,15,115,"2015-09-04 15:21:28",test,1,1,1,2665
1156279,16,115,"2015-09-04 15:21:28",test,2,2,1,3183
1156279,17,115,"2015-09-04 15:21:28",test,3,3,1,1689
1156279,18,115,"2015-09-04 15:21:28",test,2,2,1,3637
1156279,19,115,"2015-09-04 15:21:28",test,5,5,1,2478
1156279,20,115,"2015-09-04 15:21:28",test,4,4,1,5553
1156279,21,115,"2015-09-04 15:21:28",test,2,2,1,4893
1156279,22,115,"2015-09-04 15:21:28",test,1,1,1,4522
1156279,23,115,"2015-09-04 15:21:28",test,2,2,1,6693
1156279,24,115,"2015-09-04 15:21:28",test,5,5,1,5143
1156279,25,115,"2015-09-04 15:21:28",testsmall,3,3,1,15486
1156279,26,115,"2015-09-04 15:21:28",test,1,2,0,1168
1156279,27,115,"2015-09-04 15:21:28",testbig,3,1,0,353
1156279,28,115,"2015-09-04 15:21:28",test,4,4,1,57
1156279,29,115,"2015-09-04 15:21:28",test,3,2,0,248
1156279,30,115,"2015-09-04 15:21:28",testbig,5,4,0,430
1156279,31,115,"2015-09-04 15:21:28",testbig,4,2,0,365
1156365,1,281,"2015-09-04 17:12:01",prac_test,3,3,1,1469
1156365,2,281,"2015-09-04 17:12:01",prac_test,1,1,1,911
1156365,3,281,"2015-09-04 17:12:01",inst2,0,0,1,6234
1156365,4,281,"2015-09-04 17:12:01",testbig,2,5,0,2130
1156365,5,281,"2015-09-04 17:12:01",test,1,1,1,4712
1156365,6,281,"2015-09-04 17:12:01",test,4,4,1,2764
1156365,7,281,"2015-09-04 17:12:01",test,3,3,1,995
1156365,8,281,"2015-09-04 17:12:01",test,1,1,1,628
1156365,9,281,"2015-09-04 17:12:01",test,3,3,1,1430
1156365,10,281,"2015-09-04 17:12:01",test,3,1,0,714
1156365,11,281,"2015-09-04 17:12:01",test,4,4,1,931
1156365,12,281,"2015-09-04 17:12:01",test,4,4,1,1940
1156365,13,281,"2015-09-04 17:12:01",test,1,1,1,2123
1156365,14,281,"2015-09-04 17:12:01",test,5,1,0,1161
1156365,15,281,"2015-09-04 17:12:01",test,1,2,0,1019
1156365,16,281,"2015-09-04 17:12:01",test,2,2,1,3232
1156365,17,281,"2015-09-04 17:12:01",test,3,1,0,798
1156365,18,281,"2015-09-04 17:12:01",test,2,5,0,1272
1156365,19,281,"2015-09-04 17:12:01",test,5,5,1,4163
1156365,20,281,"2015-09-04 17:12:01",test,4,4,1,3673
1156365,21,281,"2015-09-04 17:12:01",test,2,1,0,814
1156365,22,281,"2015-09-04 17:12:01",test,1,2,0,588
1156365,23,281,"2015-09-04 17:12:01",test,2,2,1,6580
1156365,24,281,"2015-09-04 17:12:01",test,5,1,0,423
1156365,25,281,"2015-09-04 17:12:01",testsmall,3,5,0,3554
1156365,26,281,"2015-09-04 17:12:01",test,1,1,1,3709
1156365,27,281,"2015-09-04 17:12:01",testbig,3,1,0,1229
1156365,28,281,"2015-09-04 17:12:01",test,4,2,0,456
1156365,29,281,"2015-09-04 17:12:01",test,3,3,1,8510
1156365,30,281,"2015-09-04 17:12:01",testbig,5,1,0,598
1156365,31,281,"2015-09-04 17:12:01",testbig,4,3,0,1546
1156365,32,281,"2015-09-04 17:12:01",test,5,5,1,513
1156365,33,281,"2015-09-04 17:12:01",test,4,2,0,1715
1156365,34,281,"2015-09-04 17:12:01",test,1,1,1,551
1156365,35,281,"2015-09-04 17:12:01",testsmall,5,3,0,465
1156365,36,281,"2015-09-04 17:12:01",test,3,2,0,269
1156365,37,281,"2015-09-04 17:12:01",test,3,5,0,365
1157023,1,130,"2015-09-05 12:50:05",prac_test,3,3,1,2098
1157023,2,130,"2015-09-05 12:50:05",prac_test,1,1,1,754
1157023,3,130,"2015-09-05 12:50:05",inst2,0,0,1,623
1157023,4,130,"2015-09-05 12:50:05",testbig,2,1,0,705
1157023,5,130,"2015-09-05 12:50:05",test,1,1,1,997
1157023,6,130,"2015-09-05 12:50:05",test,4,4,1,5330
1157023,7,130,"2015-09-05 12:50:05",test,3,3,1,10271
1157023,8,130,"2015-09-05 12:50:05",test,1,1,1,1468
1157023,9,130,"2015-09-05 12:50:05",test,3,3,1,1195
1157023,10,130,"2015-09-05 12:50:05",test,3,3,1,1690
1157023,11,130,"2015-09-05 12:50:05",test,4,4,1,2737
1157023,12,130,"2015-09-05 12:50:05",test,4,4,1,1299
1157023,13,130,"2015-09-05 12:50:05",test,1,1,1,1580
1157023,14,130,"2015-09-05 12:50:05",test,5,4,0,1962
1157023,15,130,"2015-09-05 12:50:05",test,1,1,1,1987
1157023,16,130,"2015-09-05 12:50:05",test,2,2,1,1708
1157023,17,130,"2015-09-05 12:50:05",test,3,3,1,1899
1157023,18,130,"2015-09-05 12:50:05",test,2,2,1,1748
1157023,19,130,"2015-09-05 12:50:05",test,5,5,1,3079
1157023,20,130,"2015-09-05 12:50:05",test,4,4,1,5388
1157023,21,130,"2015-09-05 12:50:05",test,2,4,0,1005
1157023,22,130,"2015-09-05 12:50:05",test,1,1,1,1091
1157023,23,130,"2015-09-05 12:50:05",test,2,2,1,7389
1157023,24,130,"2015-09-05 12:50:05",test,5,5,1,1619
1157023,25,130,"2015-09-05 12:50:05",testsmall,3,3,1,2683
1157023,26,130,"2015-09-05 12:50:05",test,1,1,1,1210
1157023,27,130,"2015-09-05 12:50:05",testbig,3,2,0,8903
1157023,28,130,"2015-09-05 12:50:05",test,4,2,0,1083
1157023,29,130,"2015-09-05 12:50:05",test,3,3,1,1562
1157023,30,130,"2015-09-05 12:50:05",testbig,5,5,1,4651
1157023,31,130,"2015-09-05 12:50:05",testbig,4,4,1,2329
1157023,32,130,"2015-09-05 12:50:05",test,5,3,0,3299
1157023,33,130,"2015-09-05 12:50:05",test,4,3,0,1851
1157023,34,130,"2015-09-05 12:50:05",test,1,1,1,1164
1157023,35,130,"2015-09-05 12:50:05",testsmall,5,5,1,1283
1157023,36,130,"2015-09-05 12:50:05",test,3,3,1,1931
1157023,37,130,"2015-09-05 12:50:05",test,3,3,1,1618
1157023,38,130,"2015-09-05 12:50:05",testbig,1,1,1,1740
1159621,1,397,"2015-09-08 10:19:37",prac_test,3,3,1,12204
1159621,2,397,"2015-09-08 10:19:37",prac_test,1,1,1,3739
1159621,3,397,"2015-09-08 10:19:37",inst2,0,0,1,3915
1159621,4,397,"2015-09-08 10:19:37",testbig,2,2,1,7968
1159621,5,397,"2015-09-08 10:19:37",test,1,1,1,7386
1159621,6,397,"2015-09-08 10:19:37",test,4,4,1,8867
1159621,7,397,"2015-09-08 10:19:37",test,3,3,1,6711
1159621,8,397,"2015-09-08 10:19:37",test,1,4,0,6324
1159621,9,397,"2015-09-08 10:19:37",test,3,4,0,8992
1159621,10,397,"2015-09-08 10:19:37",test,3,3,1,11848
1159621,11,397,"2015-09-08 10:19:37",test,4,4,1,16197
1159621,12,397,"2015-09-08 10:19:37",test,4,4,1,11587
1159621,13,397,"2015-09-08 10:19:37",test,1,5,0,11051
1159621,14,397,"2015-09-08 10:19:37",test,5,1,0,4816
1159621,15,397,"2015-09-08 10:19:37",test,1,4,0,12843
1159620,1,558,"2015-09-08 10:16:58",prac_test,3,3,1,10639
1159620,2,558,"2015-09-08 10:16:58",prac_test,1,1,1,5093
1159620,3,558,"2015-09-08 10:16:58",inst2,0,0,1,6016
1159620,4,558,"2015-09-08 10:16:58",testbig,2,2,1,9099
1159620,5,558,"2015-09-08 10:16:58",test,1,1,1,13742
1159620,6,558,"2015-09-08 10:16:58",test,4,4,1,7441
1159620,7,558,"2015-09-08 10:16:58",test,3,3,1,5296
1159620,8,558,"2015-09-08 10:16:58",test,1,1,1,4957
1159620,9,558,"2015-09-08 10:16:58",test,3,3,1,6869
1159620,10,558,"2015-09-08 10:16:58",test,3,3,1,15984
1159620,11,558,"2015-09-08 10:16:58",test,4,4,1,13876
1159620,12,558,"2015-09-08 10:16:58",test,4,4,1,6605
1159620,13,558,"2015-09-08 10:16:58",test,1,1,1,10207
1159620,14,558,"2015-09-08 10:16:58",test,5,1,0,5868
1159620,15,558,"2015-09-08 10:16:58",test,1,4,0,15544
1159620,16,558,"2015-09-08 10:16:58",test,2,4,0,11143
1159623,1,556,"2015-09-08 10:17:07",prac_test,3,3,1,23634
1159623,2,556,"2015-09-08 10:17:07",prac_test,1,1,1,3407
1159623,3,556,"2015-09-08 10:17:07",inst2,0,0,1,11839
1159623,4,556,"2015-09-08 10:17:07",testbig,2,2,1,11784
1159623,5,556,"2015-09-08 10:17:07",test,1,1,1,10893
1159623,6,556,"2015-09-08 10:17:07",test,4,4,1,12673
1159623,7,556,"2015-09-08 10:17:07",test,3,3,1,4888
1159623,8,556,"2015-09-08 10:17:07",test,1,1,1,3392
1159623,9,556,"2015-09-08 10:17:07",test,3,3,1,5043
1159623,10,556,"2015-09-08 10:17:07",test,3,3,1,16792
1159623,11,556,"2015-09-08 10:17:07",test,4,5,0,15335
1159623,12,556,"2015-09-08 10:17:07",test,4,4,1,7181
1159623,13,556,"2015-09-08 10:17:07",test,1,1,1,4078
1159623,14,556,"2015-09-08 10:17:07",test,5,1,0,10254
1159623,15,556,"2015-09-08 10:17:07",test,1,2,0,7722
1159623,16,556,"2015-09-08 10:17:07",test,2,4,0,25385
1159618,1,586,"2015-09-08 10:17:27",prac_test,3,3,1,15212
1159618,2,586,"2015-09-08 10:17:27",prac_test,1,1,1,5699
1159618,3,586,"2015-09-08 10:17:27",inst2,0,0,1,18732
1159618,4,586,"2015-09-08 10:17:27",testbig,2,2,1,7706
1159618,5,586,"2015-09-08 10:17:27",test,1,1,1,7409
1159618,6,586,"2015-09-08 10:17:27",test,4,4,1,11619
1159618,7,586,"2015-09-08 10:17:27",test,3,3,1,14008
1159618,8,586,"2015-09-08 10:17:27",test,1,1,1,9283
1159618,9,586,"2015-09-08 10:17:27",test,3,3,1,17702
1159618,10,586,"2015-09-08 10:17:27",test,3,1,0,12071
1159618,11,586,"2015-09-08 10:17:27",test,4,5,0,10667
1159618,12,586,"2015-09-08 10:17:27",test,4,4,1,6686
1159618,13,586,"2015-09-08 10:17:27",test,1,3,0,16189
1159618,14,586,"2015-09-08 10:17:27",test,5,1,0,6767
1159618,15,586,"2015-09-08 10:17:27",test,1,1,1,13460
1159618,16,586,"2015-09-08 10:17:27",test,2,1,0,7156
1159618,17,586,"2015-09-08 10:17:27",test,3,3,1,8466
1159618,18,586,"2015-09-08 10:17:27",test,2,5,0,7797
1159618,19,586,"2015-09-08 10:17:27",test,5,2,0,10154
1159618,20,586,"2015-09-08 10:17:27",test,4,2,0,625
1159617,1,696,"2015-09-08 10:17:15",prac_test,3,3,1,8657
1159617,2,696,"2015-09-08 10:17:15",prac_test,1,1,1,4388
1159617,3,696,"2015-09-08 10:17:15",inst2,0,0,1,1941
1159617,4,696,"2015-09-08 10:17:15",testbig,2,2,1,6894
1159617,5,696,"2015-09-08 10:17:15",test,1,1,1,22373
1159617,6,696,"2015-09-08 10:17:15",test,4,4,1,19674
1159617,7,696,"2015-09-08 10:17:15",test,3,3,1,11552
1159617,8,696,"2015-09-08 10:17:15",test,1,1,1,8080
1159617,9,696,"2015-09-08 10:17:15",test,3,3,1,6031
1159617,10,696,"2015-09-08 10:17:15",test,3,3,1,18426
1159617,11,696,"2015-09-08 10:17:15",test,4,5,0,8860
1159617,12,696,"2015-09-08 10:17:15",test,4,4,1,12755
1159617,13,696,"2015-09-08 10:17:15",test,1,1,1,5374
1159617,14,696,"2015-09-08 10:17:15",test,5,5,1,14742
1159617,15,696,"2015-09-08 10:17:15",test,1,4,0,10917
1159617,16,696,"2015-09-08 10:17:15",test,2,2,1,36818
1159617,17,696,"2015-09-08 10:17:15",test,3,3,1,5347
1159617,18,696,"2015-09-08 10:17:15",test,2,5,0,13977
1159617,19,696,"2015-09-08 10:17:15",test,5,5,1,18496
1159617,20,696,"2015-09-08 10:17:15",test,4,4,1,18444
1159617,21,696,"2015-09-08 10:17:15",test,2,5,0,10953
1159617,22,696,"2015-09-08 10:17:15",test,1,3,0,23483
1159617,23,696,"2015-09-08 10:17:15",test,2,5,0,13142
1159785,1,266,"2015-09-08 13:56:09",prac_test,3,3,1,5629
1159785,2,266,"2015-09-08 13:56:09",prac_test,1,1,1,5019
1159785,3,266,"2015-09-08 13:56:09",inst2,0,0,1,10888
1159785,4,266,"2015-09-08 13:56:09",testbig,2,2,1,3064
1159785,5,266,"2015-09-08 13:56:09",test,1,1,1,9577
1159785,6,266,"2015-09-08 13:56:09",test,4,2,0,2515
1159785,7,266,"2015-09-08 13:56:09",test,3,3,1,4700
1159785,8,266,"2015-09-08 13:56:09",test,1,1,1,2526
1159785,9,266,"2015-09-08 13:56:09",test,3,3,1,8283
1159785,10,266,"2015-09-08 13:56:09",test,3,1,0,7477
1159785,11,266,"2015-09-08 13:56:09",test,4,5,0,9252
1159785,12,266,"2015-09-08 13:56:09",test,4,3,0,7557
1159752,1,290,"2015-09-08 13:55:46",prac_test,3,3,1,17751
1159752,2,290,"2015-09-08 13:55:46",prac_test,1,1,1,2846
1159752,3,290,"2015-09-08 13:55:46",inst2,0,0,1,13256
1159752,4,290,"2015-09-08 13:55:46",testbig,2,1,0,6805
1159752,5,290,"2015-09-08 13:55:46",test,1,1,1,4671
1159752,6,290,"2015-09-08 13:55:46",test,4,4,1,3737
1159752,7,290,"2015-09-08 13:55:46",test,3,3,1,3503
1159752,8,290,"2015-09-08 13:55:46",test,1,1,1,4125
1159752,9,290,"2015-09-08 13:55:46",test,3,3,1,5124
1159752,10,290,"2015-09-08 13:55:46",test,3,1,0,5823
1159752,11,290,"2015-09-08 13:55:46",test,4,5,0,8023
1159752,12,290,"2015-09-08 13:55:46",test,4,2,0,7024
1159749,1,316,"2015-09-08 13:55:42",prac_test,3,3,1,6020
1159749,2,316,"2015-09-08 13:55:42",prac_test,1,1,1,3387
1159749,3,316,"2015-09-08 13:55:42",inst2,0,0,1,1733
1159749,4,316,"2015-09-08 13:55:42",testbig,2,1,0,3875
1159749,5,316,"2015-09-08 13:55:42",test,1,1,1,10750
1159749,6,316,"2015-09-08 13:55:42",test,4,2,0,5056
1159749,7,316,"2015-09-08 13:55:42",test,3,3,1,5449
1159749,8,316,"2015-09-08 13:55:42",test,1,1,1,3140
1159749,9,316,"2015-09-08 13:55:42",test,3,3,1,4640
1159749,10,316,"2015-09-08 13:55:42",test,3,1,0,4278
1159749,11,316,"2015-09-08 13:55:42",test,4,5,0,7742
1159749,12,316,"2015-09-08 13:55:42",test,4,4,1,5839
1159749,13,316,"2015-09-08 13:55:42",test,1,1,1,3810
1159749,14,316,"2015-09-08 13:55:42",test,5,1,0,4466
1159749,15,316,"2015-09-08 13:55:42",test,1,1,1,3717
1159749,16,316,"2015-09-08 13:55:42",test,2,4,0,5183
1159749,17,316,"2015-09-08 13:55:42",test,3,3,1,5466
1159749,18,316,"2015-09-08 13:55:42",test,2,4,0,5106
1159749,19,316,"2015-09-08 13:55:42",test,5,2,0,3921
1159749,20,316,"2015-09-08 13:55:42",test,4,2,0,18878
1159750,1,302,"2015-09-08 13:55:56",prac_test,3,3,1,5825
1159750,2,302,"2015-09-08 13:55:56",prac_test,1,1,1,2240
1159750,3,302,"2015-09-08 13:55:56",inst2,0,0,1,11360
1159750,4,302,"2015-09-08 13:55:56",testbig,2,2,1,17501
1159750,5,302,"2015-09-08 13:55:56",test,1,1,1,12606
1159750,6,302,"2015-09-08 13:55:56",test,4,4,1,7477
1159750,7,302,"2015-09-08 13:55:56",test,3,3,1,8072
1159750,8,302,"2015-09-08 13:55:56",test,1,1,1,4840
1159750,9,302,"2015-09-08 13:55:56",test,3,4,0,8975
1159750,10,302,"2015-09-08 13:55:56",test,3,1,0,8272
1159750,11,302,"2015-09-08 13:55:56",test,4,5,0,9692
1159777,1,352,"2015-09-08 13:55:16",prac_test,3,3,1,15817
1159777,2,352,"2015-09-08 13:55:16",prac_test,1,1,1,2876
1159777,3,352,"2015-09-08 13:55:16",inst2,0,0,1,1354
1159777,4,352,"2015-09-08 13:55:16",testbig,2,2,1,6832
1159777,5,352,"2015-09-08 13:55:16",test,1,1,1,10201
1159777,6,352,"2015-09-08 13:55:16",test,4,1,0,3210
1159777,7,352,"2015-09-08 13:55:16",test,3,3,1,5191
1159777,8,352,"2015-09-08 13:55:16",test,1,1,1,4359
1159777,9,352,"2015-09-08 13:55:16",test,3,3,1,21294
1159777,10,352,"2015-09-08 13:55:16",test,3,1,0,19019
1159777,11,352,"2015-09-08 13:55:16",test,4,5,0,22333
1159777,12,352,"2015-09-08 13:55:16",test,4,2,0,6679
1159779,1,351,"2015-09-08 13:55:54",prac_test,3,3,1,5014
1159779,2,351,"2015-09-08 13:55:54",prac_test,1,1,1,4039
1159779,3,351,"2015-09-08 13:55:54",inst2,0,0,1,3039
1159779,4,351,"2015-09-08 13:55:54",testbig,2,2,1,6910
1159779,5,351,"2015-09-08 13:55:54",test,1,1,1,8352
1159779,6,351,"2015-09-08 13:55:54",test,4,4,1,4216
1159779,7,351,"2015-09-08 13:55:54",test,3,3,1,4546
1159779,8,351,"2015-09-08 13:55:54",test,1,1,1,7128
1159779,9,351,"2015-09-08 13:55:54",test,3,3,1,6379
1159779,10,351,"2015-09-08 13:55:54",test,3,1,0,7055
1159779,11,351,"2015-09-08 13:55:54",test,4,1,0,7097
1159779,12,351,"2015-09-08 13:55:54",test,4,4,1,12988
1159779,13,351,"2015-09-08 13:55:54",test,1,1,1,3530
1159779,14,351,"2015-09-08 13:55:54",test,5,1,0,12279
1159779,15,351,"2015-09-08 13:55:54",test,1,1,1,6369
1159779,16,351,"2015-09-08 13:55:54",test,2,4,0,23234
1159779,17,351,"2015-09-08 13:55:54",test,3,1,0,5898
1159779,18,351,"2015-09-08 13:55:54",test,2,4,0,13716
1159782,1,349,"2015-09-08 13:57:12",prac_test,3,3,1,7599
1159782,2,349,"2015-09-08 13:57:12",prac_test,1,1,1,5389
1159782,3,349,"2015-09-08 13:57:12",inst2,0,0,1,12037
1159782,4,349,"2015-09-08 13:57:12",testbig,2,2,1,10178
1159782,5,349,"2015-09-08 13:57:12",test,1,1,1,18580
1159782,6,349,"2015-09-08 13:57:12",test,4,4,1,19463
1159782,7,349,"2015-09-08 13:57:12",test,3,3,1,12310
1159782,8,349,"2015-09-08 13:57:12",test,1,1,1,7149
1159782,9,349,"2015-09-08 13:57:12",test,3,3,1,6411
1159782,10,349,"2015-09-08 13:57:12",test,3,1,0,12625
1159782,11,349,"2015-09-08 13:57:12",test,4,5,0,11795
1159782,12,349,"2015-09-08 13:57:12",test,4,4,1,6629
1159782,13,349,"2015-09-08 13:57:12",test,1,1,1,9848
1159782,14,349,"2015-09-08 13:57:12",test,5,2,0,7303
1159782,15,349,"2015-09-08 13:57:12",test,1,1,1,8465
1159782,16,349,"2015-09-08 13:57:12",test,2,2,1,14669
1159782,17,349,"2015-09-08 13:57:12",test,3,3,1,13585
1159782,18,349,"2015-09-08 13:57:12",test,2,5,0,5631
1159782,19,349,"2015-09-08 13:57:12",test,5,2,0,7578
1159782,20,349,"2015-09-08 13:57:12",test,4,2,0,15498
1159753,1,434,"2015-09-08 13:55:48",prac_test,3,3,1,4897
1159753,2,434,"2015-09-08 13:55:48",prac_test,1,1,1,2389
1159753,3,434,"2015-09-08 13:55:48",inst2,0,0,1,2412
1159753,4,434,"2015-09-08 13:55:48",testbig,2,2,1,3993
1159753,5,434,"2015-09-08 13:55:48",test,1,1,1,13532
1159753,6,434,"2015-09-08 13:55:48",test,4,4,1,4482
1159753,7,434,"2015-09-08 13:55:48",test,3,3,1,3826
1159753,8,434,"2015-09-08 13:55:48",test,1,1,1,4755
1159753,9,434,"2015-09-08 13:55:48",test,3,3,1,9364
1159753,10,434,"2015-09-08 13:55:48",test,3,3,1,4684
1159753,11,434,"2015-09-08 13:55:48",test,4,4,1,7339
1159753,12,434,"2015-09-08 13:55:48",test,4,4,1,5849
1159753,13,434,"2015-09-08 13:55:48",test,1,1,1,4168
1159753,14,434,"2015-09-08 13:55:48",test,5,5,1,12266
1159753,15,434,"2015-09-08 13:55:48",test,1,1,1,10394
1159753,16,434,"2015-09-08 13:55:48",test,2,2,1,10745
1159753,17,434,"2015-09-08 13:55:48",test,3,3,1,4116
1159753,18,434,"2015-09-08 13:55:48",test,2,2,1,14897
1159753,19,434,"2015-09-08 13:55:48",test,5,5,1,6371
1159753,20,434,"2015-09-08 13:55:48",test,4,4,1,10953
1159753,21,434,"2015-09-08 13:55:48",test,2,2,1,9132
1159753,22,434,"2015-09-08 13:55:48",test,1,1,1,6606
1159753,23,434,"2015-09-08 13:55:48",test,2,2,1,15945
1159753,24,434,"2015-09-08 13:55:48",test,5,3,0,7664
1159753,25,434,"2015-09-08 13:55:48",testsmall,3,5,0,35690
1159753,26,434,"2015-09-08 13:55:48",test,1,5,0,5670
1159794,1,449,"2015-09-08 13:55:43",prac_test,3,3,1,2334
1159794,2,449,"2015-09-08 13:55:43",prac_test,1,1,1,8742
1159794,3,449,"2015-09-08 13:55:43",inst2,0,0,1,1436
1159794,4,449,"2015-09-08 13:55:43",testbig,2,2,1,8023
1159794,5,449,"2015-09-08 13:55:43",test,1,3,0,23521
1159794,6,449,"2015-09-08 13:55:43",test,4,4,1,8626
1159794,7,449,"2015-09-08 13:55:43",test,3,3,1,13249
1159794,8,449,"2015-09-08 13:55:43",test,1,4,0,6602
1159794,9,449,"2015-09-08 13:55:43",test,3,3,1,5685
1159794,10,449,"2015-09-08 13:55:43",test,3,3,1,7136
1159794,11,449,"2015-09-08 13:55:43",test,4,1,0,6946
1159794,12,449,"2015-09-08 13:55:43",test,4,2,0,7680
1159794,13,449,"2015-09-08 13:55:43",test,1,1,1,17305
1159794,14,449,"2015-09-08 13:55:43",test,5,5,1,13670
1159794,15,449,"2015-09-08 13:55:43",test,1,1,1,20846
1159794,16,449,"2015-09-08 13:55:43",test,2,5,0,14918
1159794,17,449,"2015-09-08 13:55:43",test,3,3,1,8583
1159794,18,449,"2015-09-08 13:55:43",test,2,2,1,10924
1159794,19,449,"2015-09-08 13:55:43",test,5,4,0,15648
1159794,20,449,"2015-09-08 13:55:43",test,4,3,0,17242
1159794,21,449,"2015-09-08 13:55:43",test,2,5,0,11641
1159778,1,441,"2015-09-08 13:55:51",prac_test,3,3,1,4405
1159778,2,441,"2015-09-08 13:55:51",prac_test,1,1,1,9988
1159778,3,441,"2015-09-08 13:55:51",inst2,0,0,1,7994
1159778,4,441,"2015-09-08 13:55:51",testbig,2,2,1,18772
1159778,5,441,"2015-09-08 13:55:51",test,1,1,1,39994
1159778,6,441,"2015-09-08 13:55:51",test,4,4,1,27751
1159778,7,441,"2015-09-08 13:55:51",test,3,3,1,7723
1159778,8,441,"2015-09-08 13:55:51",test,1,1,1,7819
1159778,9,441,"2015-09-08 13:55:51",test,3,3,1,7022
1159778,10,441,"2015-09-08 13:55:51",test,3,1,0,20687
1159778,11,441,"2015-09-08 13:55:51",test,4,5,0,21432
1159778,12,441,"2015-09-08 13:55:51",test,4,2,0,5739
1159784,1,466,"2015-09-08 13:55:54",prac_test,3,3,1,8696
1159784,2,466,"2015-09-08 13:55:54",prac_test,1,1,1,6281
1159784,3,466,"2015-09-08 13:55:54",inst2,0,0,1,2170
1159784,4,466,"2015-09-08 13:55:54",testbig,2,2,1,7948
1159784,5,466,"2015-09-08 13:55:54",test,1,1,1,61147
1159784,6,466,"2015-09-08 13:55:54",test,4,4,1,13449
1159784,7,466,"2015-09-08 13:55:54",test,3,3,1,6572
1159784,8,466,"2015-09-08 13:55:54",test,1,1,1,5523
1159784,9,466,"2015-09-08 13:55:54",test,3,3,1,13134
1159784,10,466,"2015-09-08 13:55:54",test,3,1,0,10373
1159784,11,466,"2015-09-08 13:55:54",test,4,5,0,12264
1159784,12,466,"2015-09-08 13:55:54",test,4,4,1,11475
1159784,13,466,"2015-09-08 13:55:54",test,1,1,1,4297
1159784,14,466,"2015-09-08 13:55:54",test,5,1,0,5812
1159784,15,466,"2015-09-08 13:55:54",test,1,1,1,17913
1159784,16,466,"2015-09-08 13:55:54",test,2,1,0,15963
1159784,17,466,"2015-09-08 13:55:54",test,3,3,1,10079
1159784,18,466,"2015-09-08 13:55:54",test,2,5,0,11346
1159784,19,466,"2015-09-08 13:55:54",test,5,2,0,7199
1159784,20,466,"2015-09-08 13:55:54",test,4,1,0,21362
1159780,1,656,"2015-09-08 13:55:46",prac_test,3,3,1,6610
1159780,2,656,"2015-09-08 13:55:46",prac_test,1,1,1,4147
1159780,3,656,"2015-09-08 13:55:46",inst2,0,0,1,7155
1159780,4,656,"2015-09-08 13:55:46",testbig,2,2,1,7290
1159780,5,656,"2015-09-08 13:55:46",test,1,1,1,10356
1159780,6,656,"2015-09-08 13:55:46",test,4,4,1,5004
1159780,7,656,"2015-09-08 13:55:46",test,3,3,1,5144
1159780,8,656,"2015-09-08 13:55:46",test,1,1,1,6019
1159780,9,656,"2015-09-08 13:55:46",test,3,3,1,29330
1159780,10,656,"2015-09-08 13:55:46",test,3,1,0,13423
1159780,11,656,"2015-09-08 13:55:46",test,4,5,0,9514
1159780,12,656,"2015-09-08 13:55:46",test,4,4,1,13490
1159780,13,656,"2015-09-08 13:55:46",test,1,1,1,31542
1159780,14,656,"2015-09-08 13:55:46",test,5,5,1,24133
1159780,15,656,"2015-09-08 13:55:46",test,1,1,1,26927
1159780,16,656,"2015-09-08 13:55:46",test,2,2,1,9981
1159780,17,656,"2015-09-08 13:55:46",test,3,3,1,20002
1159780,18,656,"2015-09-08 13:55:46",test,2,2,1,11463
1159780,19,656,"2015-09-08 13:55:46",test,5,5,1,6908
1159780,20,656,"2015-09-08 13:55:46",test,4,4,1,10589
1159780,21,656,"2015-09-08 13:55:46",test,2,5,0,12651
1159780,22,656,"2015-09-08 13:55:46",test,1,3,0,22931
1159780,23,656,"2015-09-08 13:55:46",test,2,2,1,34700
1159780,24,656,"2015-09-08 13:55:46",test,5,5,1,51759
1159780,25,656,"2015-09-08 13:55:46",testsmall,3,2,0,18863
1159780,26,656,"2015-09-08 13:55:46",test,1,4,0,5551
1159780,27,656,"2015-09-08 13:55:46",testbig,3,5,0,9000
1160076,1,140,"2015-09-08 21:54:38",prac_test,3,3,1,2065
1160076,2,140,"2015-09-08 21:54:38",prac_test,1,1,1,1241
1160076,3,140,"2015-09-08 21:54:38",inst2,0,0,1,856
1160076,4,140,"2015-09-08 21:54:38",testbig,2,2,1,1213
1160076,5,140,"2015-09-08 21:54:38",test,1,1,1,2420
1160076,6,140,"2015-09-08 21:54:38",test,4,4,1,1783
1160076,7,140,"2015-09-08 21:54:38",test,3,3,1,1577
1160076,8,140,"2015-09-08 21:54:38",test,1,1,1,1772
1160076,9,140,"2015-09-08 21:54:38",test,3,3,1,3026
1160076,10,140,"2015-09-08 21:54:38",test,3,3,1,2731
1160076,11,140,"2015-09-08 21:54:38",test,4,4,1,1829
1160076,12,140,"2015-09-08 21:54:38",test,4,4,1,3770
1160076,13,140,"2015-09-08 21:54:38",test,1,1,1,2369
1160076,14,140,"2015-09-08 21:54:38",test,5,2,0,2048
1160076,15,140,"2015-09-08 21:54:38",test,1,1,1,1606
1160076,16,140,"2015-09-08 21:54:38",test,2,2,1,1460
1160076,17,140,"2015-09-08 21:54:38",test,3,3,1,1425
1160076,18,140,"2015-09-08 21:54:38",test,2,2,1,4504
1160076,19,140,"2015-09-08 21:54:38",test,5,5,1,1644
1160076,20,140,"2015-09-08 21:54:38",test,4,4,1,1913
1160076,21,140,"2015-09-08 21:54:38",test,2,2,1,1342
1160076,22,140,"2015-09-08 21:54:38",test,1,1,1,4733
1160076,23,140,"2015-09-08 21:54:38",test,2,2,1,5988
1160076,24,140,"2015-09-08 21:54:38",test,5,5,1,4053
1160076,25,140,"2015-09-08 21:54:38",testsmall,3,4,0,2670
1160076,26,140,"2015-09-08 21:54:38",test,1,1,1,1409
1160076,27,140,"2015-09-08 21:54:38",testbig,3,1,0,1308
1160076,28,140,"2015-09-08 21:54:38",test,4,4,1,1472
1160076,29,140,"2015-09-08 21:54:38",test,3,3,1,2382
1160076,30,140,"2015-09-08 21:54:38",testbig,5,1,0,1667
1160076,31,140,"2015-09-08 21:54:38",testbig,4,4,1,1793
1160076,32,140,"2015-09-08 21:54:38",test,5,5,1,10232
1160076,33,140,"2015-09-08 21:54:38",test,4,2,0,2042
1160076,34,140,"2015-09-08 21:54:38",test,1,1,1,3680
1160076,35,140,"2015-09-08 21:54:38",testsmall,5,3,0,1582
1160076,36,140,"2015-09-08 21:54:38",test,3,2,0,5486
1160076,37,140,"2015-09-08 21:54:38",test,3,3,1,11481
1160076,38,140,"2015-09-08 21:54:38",testbig,1,4,0,1859
1160609,1,168,"2015-09-09 09:32:27",prac_test,3,3,1,5766
1160609,2,168,"2015-09-09 09:32:27",prac_test,1,1,1,3150
1160609,3,168,"2015-09-09 09:32:27",inst2,0,0,1,1772
1160609,4,168,"2015-09-09 09:32:27",testbig,2,2,1,15885
1160609,5,168,"2015-09-09 09:32:27",test,1,1,1,13078
1160609,6,168,"2015-09-09 09:32:27",test,4,4,1,7141
1160609,7,168,"2015-09-09 09:32:27",test,3,3,1,3764
1160609,8,168,"2015-09-09 09:32:27",test,1,1,1,12273
1160609,9,168,"2015-09-09 09:32:27",test,3,3,1,6408
1160609,10,168,"2015-09-09 09:32:27",test,3,2,0,10828
1160609,11,168,"2015-09-09 09:32:27",test,4,5,0,11481
1160609,12,168,"2015-09-09 09:32:27",test,4,2,0,7446
1160605,1,157,"2015-09-09 09:33:05",prac_test,3,3,1,6722
1160605,2,157,"2015-09-09 09:33:05",prac_test,1,1,1,5543
1160605,3,157,"2015-09-09 09:33:05",inst2,0,0,1,7611
1160605,4,157,"2015-09-09 09:33:05",testbig,2,3,0,9053
1160605,5,157,"2015-09-09 09:33:05",test,1,3,0,11049
1160605,6,157,"2015-09-09 09:33:05",test,4,2,0,9335
1160610,1,387,"2015-09-09 09:29:25",prac_test,3,3,1,10086
1160610,2,387,"2015-09-09 09:29:25",prac_test,1,1,1,13822
1160610,3,387,"2015-09-09 09:29:25",inst2,0,0,1,2209
1160610,4,387,"2015-09-09 09:29:25",testbig,2,2,1,8303
1160610,5,387,"2015-09-09 09:29:25",test,1,1,1,15721
1160610,6,387,"2015-09-09 09:29:25",test,4,4,1,10319
1160610,7,387,"2015-09-09 09:29:25",test,3,3,1,4631
1160610,8,387,"2015-09-09 09:29:25",test,1,1,1,5709
1160610,9,387,"2015-09-09 09:29:25",test,3,1,0,5758
1160610,10,387,"2015-09-09 09:29:25",test,3,1,0,14075
1160610,11,387,"2015-09-09 09:29:25",test,4,5,0,12102
1160614,1,358,"2015-09-09 09:30:33",prac_test,3,3,1,17403
1160614,2,358,"2015-09-09 09:30:33",prac_test,1,1,1,3594
1160614,3,358,"2015-09-09 09:30:33",inst2,0,0,1,2876
1160614,4,358,"2015-09-09 09:30:33",testbig,2,2,1,15683
1160614,5,358,"2015-09-09 09:30:33",test,1,1,1,12244
1160614,6,358,"2015-09-09 09:30:33",test,4,4,1,8569
1160614,7,358,"2015-09-09 09:30:33",test,3,3,1,10253
1160614,8,358,"2015-09-09 09:30:33",test,1,1,1,5537
1160614,9,358,"2015-09-09 09:30:33",test,3,1,0,8336
1160614,10,358,"2015-09-09 09:30:33",test,3,1,0,11582
1160614,11,358,"2015-09-09 09:30:33",test,4,5,0,28891
1160608,1,372,"2015-09-09 09:30:44",prac_test,3,3,1,16925
1160608,2,372,"2015-09-09 09:30:44",prac_test,1,1,1,5997
1160608,3,372,"2015-09-09 09:30:44",inst2,0,0,1,6168
1160608,4,372,"2015-09-09 09:30:44",testbig,2,2,1,16478
1160608,5,372,"2015-09-09 09:30:44",test,1,1,1,13417
1160608,6,372,"2015-09-09 09:30:44",test,4,4,1,15848
1160608,7,372,"2015-09-09 09:30:44",test,3,3,1,7018
1160608,8,372,"2015-09-09 09:30:44",test,1,1,1,7097
1160608,9,372,"2015-09-09 09:30:44",test,3,1,0,5271
1160608,10,372,"2015-09-09 09:30:44",test,3,1,0,8641
1160608,11,372,"2015-09-09 09:30:44",test,4,1,0,6490
1160616,1,311,"2015-09-09 09:32:44",prac_test,3,3,1,5069
1160616,2,311,"2015-09-09 09:32:44",prac_test,1,1,1,6718
1160616,3,311,"2015-09-09 09:32:44",inst2,0,0,1,7194
1160616,4,311,"2015-09-09 09:32:44",testbig,2,2,1,12609
1160616,5,311,"2015-09-09 09:32:44",test,1,1,1,14507
1160616,6,311,"2015-09-09 09:32:44",test,4,2,0,9302
1160616,7,311,"2015-09-09 09:32:44",test,3,3,1,8380
1160616,8,311,"2015-09-09 09:32:44",test,1,1,1,7932
1160616,9,311,"2015-09-09 09:32:44",test,3,3,1,20939
1160616,10,311,"2015-09-09 09:32:44",test,3,3,1,19085
1160616,11,311,"2015-09-09 09:32:44",test,4,5,0,13366
1160616,12,311,"2015-09-09 09:32:44",test,4,4,1,7994
1160616,13,311,"2015-09-09 09:32:44",test,1,1,1,8268
1160616,14,311,"2015-09-09 09:32:44",test,5,1,0,5699
1160616,15,311,"2015-09-09 09:32:44",test,1,4,0,16130
1160616,16,311,"2015-09-09 09:32:44",test,2,1,0,18873
1160629,1,212,"2015-09-09 09:34:24",prac_test,3,3,1,12492
1160629,2,212,"2015-09-09 09:34:24",prac_test,1,1,1,7386
1160629,3,212,"2015-09-09 09:34:24",inst2,0,0,1,2551
1160629,4,212,"2015-09-09 09:34:24",testbig,2,2,1,7432
1160629,5,212,"2015-09-09 09:34:24",test,1,1,1,11638
1160629,6,212,"2015-09-09 09:34:24",test,4,2,0,6901
1160629,7,212,"2015-09-09 09:34:24",test,3,3,1,5859
1160629,8,212,"2015-09-09 09:34:24",test,1,1,1,18366
1160629,9,212,"2015-09-09 09:34:24",test,3,3,1,21095
1160629,10,212,"2015-09-09 09:34:24",test,3,1,0,10299
1160629,11,212,"2015-09-09 09:34:24",test,4,5,0,11880
1160629,12,212,"2015-09-09 09:34:24",test,4,4,1,40923
1160629,13,212,"2015-09-09 09:34:24",test,1,5,0,9367
1160629,14,212,"2015-09-09 09:34:24",test,5,1,0,5135
1160629,15,212,"2015-09-09 09:34:24",test,1,2,0,9175
1160601,1,245,"2015-09-09 09:34:04",prac_test,3,3,1,33955
1160601,2,245,"2015-09-09 09:34:04",prac_test,1,1,1,5318
1160601,3,245,"2015-09-09 09:34:04",inst2,0,0,1,5327
1160601,4,245,"2015-09-09 09:34:04",testbig,2,2,1,10687
1160601,5,245,"2015-09-09 09:34:04",test,1,1,1,25138
1160601,6,245,"2015-09-09 09:34:04",test,4,2,0,3186
1160601,7,245,"2015-09-09 09:34:04",test,3,3,1,4003
1160601,8,245,"2015-09-09 09:34:04",test,1,3,0,4996
1160601,9,245,"2015-09-09 09:34:04",test,3,3,1,10022
1160601,10,245,"2015-09-09 09:34:04",test,3,2,0,6580
1160601,11,245,"2015-09-09 09:34:04",test,4,4,1,11032
1160601,12,245,"2015-09-09 09:34:04",test,4,4,1,19115
1160601,13,245,"2015-09-09 09:34:04",test,1,1,1,7807
1160601,14,245,"2015-09-09 09:34:04",test,5,2,0,17859
1160601,15,245,"2015-09-09 09:34:04",test,1,2,0,19492
1160601,16,245,"2015-09-09 09:34:04",test,2,1,0,7120
1160607,1,235,"2015-09-09 09:35:30",prac_test,3,3,1,8258
1160607,2,235,"2015-09-09 09:35:30",prac_test,1,1,1,5699
1160607,3,235,"2015-09-09 09:35:30",inst2,0,0,1,1078
1160607,4,235,"2015-09-09 09:35:30",testbig,2,2,1,7774
1160607,5,235,"2015-09-09 09:35:30",test,1,1,1,12807
1160607,6,235,"2015-09-09 09:35:30",test,4,4,1,7189
1160607,7,235,"2015-09-09 09:35:30",test,3,3,1,5333
1160607,8,235,"2015-09-09 09:35:30",test,1,1,1,4656
1160607,9,235,"2015-09-09 09:35:30",test,3,3,1,8397
1160607,10,235,"2015-09-09 09:35:30",test,3,1,0,4643
1160607,11,235,"2015-09-09 09:35:30",test,4,5,0,9884
1160607,12,235,"2015-09-09 09:35:30",test,4,4,1,8890
1160607,13,235,"2015-09-09 09:35:30",test,1,1,1,11220
1160607,14,235,"2015-09-09 09:35:30",test,5,1,0,9960
1160607,15,235,"2015-09-09 09:35:30",test,1,1,1,8612
1160607,16,235,"2015-09-09 09:35:30",test,2,5,0,3559
1160607,17,235,"2015-09-09 09:35:30",test,3,3,1,12968
1160607,18,235,"2015-09-09 09:35:30",test,2,4,0,10737
1160607,19,235,"2015-09-09 09:35:30",test,5,1,0,6478
1160607,20,235,"2015-09-09 09:35:30",test,4,1,0,9021
1160780,1,228,"2015-09-09 10:11:16",prac_test,3,3,1,3363
1160780,2,228,"2015-09-09 10:11:16",prac_test,1,1,1,6831
1160780,3,228,"2015-09-09 10:11:16",inst2,0,0,1,1213
1160780,4,228,"2015-09-09 10:11:16",testbig,2,3,0,5802
1160780,5,228,"2015-09-09 10:11:16",test,1,2,0,3416
1160780,6,228,"2015-09-09 10:11:16",test,4,1,0,2516
1160781,1,435,"2015-09-09 10:12:07",prac_test,3,3,1,4297
1160781,2,435,"2015-09-09 10:12:07",prac_test,1,1,1,3640
1160781,3,435,"2015-09-09 10:12:07",inst2,0,0,1,3155
1160781,4,435,"2015-09-09 10:12:07",testbig,2,2,1,5589
1160781,5,435,"2015-09-09 10:12:07",test,1,1,1,22195
1160781,6,435,"2015-09-09 10:12:07",test,4,4,1,8859
1160781,7,435,"2015-09-09 10:12:07",test,3,3,1,5576
1160781,8,435,"2015-09-09 10:12:07",test,1,1,1,24854
1160781,9,435,"2015-09-09 10:12:07",test,3,3,1,9842
1160781,10,435,"2015-09-09 10:12:07",test,3,3,1,30162
1160781,11,435,"2015-09-09 10:12:07",test,4,5,0,25424
1160781,12,435,"2015-09-09 10:12:07",test,4,4,1,38711
1160781,13,435,"2015-09-09 10:12:07",test,1,3,0,9902
1160781,14,435,"2015-09-09 10:12:07",test,5,1,0,9005
1160781,15,435,"2015-09-09 10:12:07",test,1,4,0,64096
1160786,1,403,"2015-09-09 10:13:21",prac_test,3,3,1,5599
1160786,2,403,"2015-09-09 10:13:21",prac_test,1,1,1,2845
1160786,3,403,"2015-09-09 10:13:21",inst2,0,0,1,6915
1160786,4,403,"2015-09-09 10:13:21",testbig,2,2,1,2981
1160786,5,403,"2015-09-09 10:13:21",test,1,1,1,9676
1160786,6,403,"2015-09-09 10:13:21",test,4,4,1,4513
1160786,7,403,"2015-09-09 10:13:21",test,3,3,1,5792
1160786,8,403,"2015-09-09 10:13:21",test,1,1,1,4476
1160786,9,403,"2015-09-09 10:13:21",test,3,3,1,5510
1160786,10,403,"2015-09-09 10:13:21",test,3,3,1,14560
1160786,11,403,"2015-09-09 10:13:21",test,4,3,0,32179
1160786,12,403,"2015-09-09 10:13:21",test,4,4,1,5630
1160786,13,403,"2015-09-09 10:13:21",test,1,1,1,16269
1160786,14,403,"2015-09-09 10:13:21",test,5,2,0,24246
1160786,15,403,"2015-09-09 10:13:21",test,1,1,1,11488
1160786,16,403,"2015-09-09 10:13:21",test,2,4,0,7790
1160786,17,403,"2015-09-09 10:13:21",test,3,4,0,5698
1160786,18,403,"2015-09-09 10:13:21",test,2,2,1,55279
1160786,19,403,"2015-09-09 10:13:21",test,5,5,1,11086
1160786,20,403,"2015-09-09 10:13:21",test,4,4,1,11720
1160786,21,403,"2015-09-09 10:13:21",test,2,5,0,10393
1160786,22,403,"2015-09-09 10:13:21",test,1,1,1,23111
1160786,23,403,"2015-09-09 10:13:21",test,2,2,1,17793
1160786,24,403,"2015-09-09 10:13:21",test,5,5,1,20720
1160786,25,403,"2015-09-09 10:13:21",testsmall,3,5,0,2313
1160786,26,403,"2015-09-09 10:13:21",test,1,3,0,1204
1160786,27,403,"2015-09-09 10:13:21",testbig,3,2,0,784
1160762,1,270,"2015-09-09 10:26:28",prac_test,3,3,1,6250
1160762,2,270,"2015-09-09 10:26:28",prac_test,1,1,1,4592
1160762,3,270,"2015-09-09 10:26:28",inst2,0,0,1,3476
1160762,4,270,"2015-09-09 10:26:28",testbig,2,2,1,9442
1160762,5,270,"2015-09-09 10:26:28",test,1,1,1,33857
1160762,6,270,"2015-09-09 10:26:28",test,4,2,0,16098
1160762,7,270,"2015-09-09 10:26:28",test,3,5,0,8683
1160762,8,270,"2015-09-09 10:26:28",test,1,4,0,10170
1160838,1,216,"2015-09-09 10:27:38",prac_test,3,3,1,4559
1160838,2,216,"2015-09-09 10:27:38",prac_test,1,1,1,2311
1160838,3,216,"2015-09-09 10:27:38",inst2,0,0,1,3225
1160838,4,216,"2015-09-09 10:27:38",testbig,2,2,1,8771
1160838,5,216,"2015-09-09 10:27:38",test,1,1,1,9211
1160838,6,216,"2015-09-09 10:27:38",test,4,3,0,4749
1160838,7,216,"2015-09-09 10:27:38",test,3,3,1,4094
1160838,8,216,"2015-09-09 10:27:38",test,1,1,1,3409
1160838,9,216,"2015-09-09 10:27:38",test,3,3,1,4076
1160838,10,216,"2015-09-09 10:27:38",test,3,1,0,6135
1160838,11,216,"2015-09-09 10:27:38",test,4,5,0,8553
1160838,12,216,"2015-09-09 10:27:38",test,4,4,1,5576
1160838,13,216,"2015-09-09 10:27:38",test,1,1,1,7227
1160838,14,216,"2015-09-09 10:27:38",test,5,1,0,3938
1160838,15,216,"2015-09-09 10:27:38",test,1,1,1,6421
1160838,16,216,"2015-09-09 10:27:38",test,2,4,0,5669
1160838,17,216,"2015-09-09 10:27:38",test,3,3,1,3767
1160838,18,216,"2015-09-09 10:27:38",test,2,4,0,5251
1160838,19,216,"2015-09-09 10:27:38",test,5,1,0,2828
1160838,20,216,"2015-09-09 10:27:38",test,4,2,0,5636
1160763,1,278,"2015-09-09 10:27:44",prac_test,3,3,1,5380
1160763,2,278,"2015-09-09 10:27:44",prac_test,1,1,1,4094
1160763,3,278,"2015-09-09 10:27:44",inst2,0,0,1,2131
1160763,4,278,"2015-09-09 10:27:44",testbig,2,2,1,9512
1160763,5,278,"2015-09-09 10:27:44",test,1,1,1,11749
1160763,6,278,"2015-09-09 10:27:44",test,4,4,1,12578
1160763,7,278,"2015-09-09 10:27:44",test,3,3,1,8004
1160763,8,278,"2015-09-09 10:27:44",test,1,1,1,6107
1160763,9,278,"2015-09-09 10:27:44",test,3,4,0,8124
1160763,10,278,"2015-09-09 10:27:44",test,3,3,1,13623
1160763,11,278,"2015-09-09 10:27:44",test,4,5,0,8275
1160763,12,278,"2015-09-09 10:27:44",test,4,4,1,10846
1160763,13,278,"2015-09-09 10:27:44",test,1,3,0,5340
1160763,14,278,"2015-09-09 10:27:44",test,5,1,0,5447
1160763,15,278,"2015-09-09 10:27:44",test,1,1,1,5026
1160763,16,278,"2015-09-09 10:27:44",test,2,4,0,11969
1160763,17,278,"2015-09-09 10:27:44",test,3,3,1,7729
1160763,18,278,"2015-09-09 10:27:44",test,2,5,0,5194
1160763,19,278,"2015-09-09 10:27:44",test,5,1,0,15373
1160763,20,278,"2015-09-09 10:27:44",test,4,5,0,10801
1160836,1,240,"2015-09-09 10:31:07",prac_test,3,3,1,5695
1160836,2,240,"2015-09-09 10:31:07",prac_test,1,1,1,2732
1160836,3,240,"2015-09-09 10:31:07",inst2,0,0,1,2165
1160836,4,240,"2015-09-09 10:31:07",testbig,2,2,1,6338
1160836,5,240,"2015-09-09 10:31:07",test,1,1,1,12843
1160836,6,240,"2015-09-09 10:31:07",test,4,4,1,6523
1160836,7,240,"2015-09-09 10:31:07",test,3,3,1,4965
1160836,8,240,"2015-09-09 10:31:07",test,1,1,1,3601
1160836,9,240,"2015-09-09 10:31:07",test,3,3,1,5893
1160836,10,240,"2015-09-09 10:31:07",test,3,1,0,6271
1160836,11,240,"2015-09-09 10:31:07",test,4,5,0,9796
1160836,12,240,"2015-09-09 10:31:07",test,4,4,1,7011
1160836,13,240,"2015-09-09 10:31:07",test,1,3,0,5020
1160836,14,240,"2015-09-09 10:31:07",test,5,1,0,5613
1160836,15,240,"2015-09-09 10:31:07",test,1,1,1,3681
1160836,16,240,"2015-09-09 10:31:07",test,2,4,0,6869
1160836,17,240,"2015-09-09 10:31:07",test,3,3,1,5919
1160836,18,240,"2015-09-09 10:31:07",test,2,5,0,3718
1160836,19,240,"2015-09-09 10:31:07",test,5,1,0,3299
1160836,20,240,"2015-09-09 10:31:07",test,4,2,0,15743
1160825,1,339,"2015-09-09 10:30:09",prac_test,3,3,1,4049
1160825,2,339,"2015-09-09 10:30:09",prac_test,1,1,1,3077
1160825,3,339,"2015-09-09 10:30:09",inst2,0,0,1,9855
1160825,4,339,"2015-09-09 10:30:09",testbig,2,2,1,5979
1160825,5,339,"2015-09-09 10:30:09",test,1,1,1,11589
1160825,6,339,"2015-09-09 10:30:09",test,4,4,1,5558
1160825,7,339,"2015-09-09 10:30:09",test,3,3,1,6102
1160825,8,339,"2015-09-09 10:30:09",test,1,4,0,5526
1160825,9,339,"2015-09-09 10:30:09",test,3,3,1,9889
1160825,10,339,"2015-09-09 10:30:09",test,3,1,0,35068
1160825,11,339,"2015-09-09 10:30:09",test,4,4,1,33042
1160825,12,339,"2015-09-09 10:30:09",test,4,4,1,7893
1160825,13,339,"2015-09-09 10:30:09",test,1,3,0,3425
1160825,14,339,"2015-09-09 10:30:09",test,5,1,0,9997
1160825,15,339,"2015-09-09 10:30:09",test,1,4,0,11320
1160827,1,373,"2015-09-09 10:30:56",prac_test,3,3,1,7856
1160827,2,373,"2015-09-09 10:30:56",prac_test,1,1,1,3344
1160827,3,373,"2015-09-09 10:30:56",inst2,0,0,1,9569
1160827,4,373,"2015-09-09 10:30:56",testbig,2,2,1,7758
1160827,5,373,"2015-09-09 10:30:56",test,1,1,1,21644
1160827,6,373,"2015-09-09 10:30:56",test,4,2,0,6786
1160827,7,373,"2015-09-09 10:30:56",test,3,3,1,8117
1160827,8,373,"2015-09-09 10:30:56",test,1,1,1,4404
1160827,9,373,"2015-09-09 10:30:56",test,3,3,1,21267
1160827,10,373,"2015-09-09 10:30:56",test,3,1,0,14388
1160827,11,373,"2015-09-09 10:30:56",test,4,5,0,8365
1160827,12,373,"2015-09-09 10:30:56",test,4,4,1,7708
1160827,13,373,"2015-09-09 10:30:56",test,1,1,1,6914
1160827,14,373,"2015-09-09 10:30:56",test,5,1,0,3673
1160827,15,373,"2015-09-09 10:30:56",test,1,1,1,7338
1160827,16,373,"2015-09-09 10:30:56",test,2,4,0,7773
1160827,17,373,"2015-09-09 10:30:56",test,3,3,1,4512
1160827,18,373,"2015-09-09 10:30:56",test,2,5,0,6039
1160827,19,373,"2015-09-09 10:30:56",test,5,1,0,14840
1160827,20,373,"2015-09-09 10:30:56",test,4,4,1,23936
1160827,21,373,"2015-09-09 10:30:56",test,2,3,0,15170
1160827,22,373,"2015-09-09 10:30:56",test,1,2,0,18071
1160827,23,373,"2015-09-09 10:30:56",test,2,1,0,3717
1160834,1,434,"2015-09-09 10:30:08",prac_test,3,3,1,25065
1160834,2,434,"2015-09-09 10:30:08",prac_test,1,1,1,31920
1160834,3,434,"2015-09-09 10:30:08",inst2,0,0,1,45036
1160834,4,434,"2015-09-09 10:30:08",testbig,2,4,0,3514
1160834,5,434,"2015-09-09 10:30:08",test,1,3,0,17330
1160834,6,434,"2015-09-09 10:30:08",test,4,4,1,7440
1160834,7,434,"2015-09-09 10:30:08",test,3,3,1,4513
1160834,8,434,"2015-09-09 10:30:08",test,1,1,1,3732
1160834,9,434,"2015-09-09 10:30:08",test,3,3,1,5760
1160834,10,434,"2015-09-09 10:30:08",test,3,1,0,8382
1160834,11,434,"2015-09-09 10:30:08",test,4,5,0,11175
1160834,12,434,"2015-09-09 10:30:08",test,4,4,1,9380
1160834,13,434,"2015-09-09 10:30:08",test,1,1,1,5231
1160834,14,434,"2015-09-09 10:30:08",test,5,1,0,8459
1160834,15,434,"2015-09-09 10:30:08",test,1,4,0,13984
1160834,16,434,"2015-09-09 10:30:08",test,2,4,0,15139
1160832,1,479,"2015-09-09 10:30:11",prac_test,3,3,1,3808
1160832,2,479,"2015-09-09 10:30:11",prac_test,1,1,1,2937
1160832,3,479,"2015-09-09 10:30:11",inst2,0,0,1,7097
1160832,4,479,"2015-09-09 10:30:11",testbig,2,2,1,7695
1160832,5,479,"2015-09-09 10:30:11",test,1,1,1,19005
1160832,6,479,"2015-09-09 10:30:11",test,4,4,1,7663
1160832,7,479,"2015-09-09 10:30:11",test,3,3,1,10451
1160832,8,479,"2015-09-09 10:30:11",test,1,1,1,7932
1160832,9,479,"2015-09-09 10:30:11",test,3,4,0,10058
1160832,10,479,"2015-09-09 10:30:11",test,3,3,1,18456
1160832,11,479,"2015-09-09 10:30:11",test,4,5,0,9369
1160832,12,479,"2015-09-09 10:30:11",test,4,4,1,8868
1160832,13,479,"2015-09-09 10:30:11",test,1,3,0,4690
1160832,14,479,"2015-09-09 10:30:11",test,5,5,1,7152
1160832,15,479,"2015-09-09 10:30:11",test,1,1,1,7618
1160832,16,479,"2015-09-09 10:30:11",test,2,3,0,10332
1160832,17,479,"2015-09-09 10:30:11",test,3,4,0,6713
1160832,18,479,"2015-09-09 10:30:11",test,2,2,1,11380
1160832,19,479,"2015-09-09 10:30:11",test,5,5,1,16152
1160832,20,479,"2015-09-09 10:30:11",test,4,4,1,12706
1160832,21,479,"2015-09-09 10:30:11",test,2,2,1,13048
1160832,22,479,"2015-09-09 10:30:11",test,1,5,0,28943
1160832,23,479,"2015-09-09 10:30:11",test,2,4,0,13798
1160832,24,479,"2015-09-09 10:30:11",test,5,5,1,17138
1160832,25,479,"2015-09-09 10:30:11",testsmall,3,4,0,14619
1160832,26,479,"2015-09-09 10:30:11",test,1,5,0,5961
1160832,27,479,"2015-09-09 10:30:11",testbig,3,1,0,16163
1160903,1,404,"2015-09-09 11:05:10",prac_test,3,3,1,4486
1160903,2,404,"2015-09-09 11:05:10",prac_test,1,1,1,1395
1160903,3,404,"2015-09-09 11:05:10",inst2,0,0,1,2726
1160903,4,404,"2015-09-09 11:05:10",testbig,2,2,1,4170
1160903,5,404,"2015-09-09 11:05:10",test,1,1,1,10085
1160903,6,404,"2015-09-09 11:05:10",test,4,4,1,3826
1160903,7,404,"2015-09-09 11:05:10",test,3,3,1,10500
1160903,8,404,"2015-09-09 11:05:10",test,1,1,1,2704
1160903,9,404,"2015-09-09 11:05:10",test,3,3,1,6837
1160903,10,404,"2015-09-09 11:05:10",test,3,3,1,9083
1160903,11,404,"2015-09-09 11:05:10",test,4,5,0,8632
1160903,12,404,"2015-09-09 11:05:10",test,4,4,1,7650
1160903,13,404,"2015-09-09 11:05:10",test,1,1,1,6447
1160903,14,404,"2015-09-09 11:05:10",test,5,1,0,3464
1160903,15,404,"2015-09-09 11:05:10",test,1,1,1,3703
1160903,16,404,"2015-09-09 11:05:10",test,2,4,0,19395
1160903,17,404,"2015-09-09 11:05:10",test,3,3,1,5464
1160903,18,404,"2015-09-09 11:05:10",test,2,5,0,6011
1160903,19,404,"2015-09-09 11:05:10",test,5,4,0,12063
1160903,20,404,"2015-09-09 11:05:10",test,4,4,1,9037
1160903,21,404,"2015-09-09 11:05:10",test,2,5,0,7321
1160903,22,404,"2015-09-09 11:05:10",test,1,3,0,21705
1160903,23,404,"2015-09-09 11:05:10",test,2,1,0,3405
1160928,1,285,"2015-09-09 11:08:15",prac_test,3,3,1,8712
1160928,2,285,"2015-09-09 11:08:15",prac_test,1,1,1,3904
1160928,3,285,"2015-09-09 11:08:15",inst2,0,0,1,981
1160928,4,285,"2015-09-09 11:08:15",testbig,2,2,1,6292
1160928,5,285,"2015-09-09 11:08:15",test,1,1,1,9644
1160928,6,285,"2015-09-09 11:08:15",test,4,4,1,6818
1160928,7,285,"2015-09-09 11:08:15",test,3,3,1,3485
1160928,8,285,"2015-09-09 11:08:15",test,1,1,1,2347
1160928,9,285,"2015-09-09 11:08:15",test,3,3,1,6434
1160928,10,285,"2015-09-09 11:08:15",test,3,1,0,6420
1160928,11,285,"2015-09-09 11:08:15",test,4,5,0,7377
1160928,12,285,"2015-09-09 11:08:15",test,4,4,1,5964
1160928,13,285,"2015-09-09 11:08:15",test,1,1,1,3595
1160928,14,285,"2015-09-09 11:08:15",test,5,5,1,5178
1160928,15,285,"2015-09-09 11:08:15",test,1,1,1,4138
1160928,16,285,"2015-09-09 11:08:15",test,2,4,0,6403
1160928,17,285,"2015-09-09 11:08:15",test,3,3,1,3529
1160928,18,285,"2015-09-09 11:08:15",test,2,2,1,4280
1160928,19,285,"2015-09-09 11:08:15",test,5,5,1,5397
1160928,20,285,"2015-09-09 11:08:15",test,4,5,0,13543
1160928,21,285,"2015-09-09 11:08:15",test,2,5,0,3920
1160928,22,285,"2015-09-09 11:08:15",test,1,4,0,9661
1160898,1,399,"2015-09-09 11:07:20",prac_test,3,3,1,4759
1160898,2,399,"2015-09-09 11:07:20",prac_test,1,1,1,2471
1160898,3,399,"2015-09-09 11:07:20",inst2,0,0,1,6190
1160898,4,399,"2015-09-09 11:07:20",testbig,2,2,1,4718
1160898,5,399,"2015-09-09 11:07:20",test,1,1,1,4396
1160898,6,399,"2015-09-09 11:07:20",test,4,4,1,5597
1160898,7,399,"2015-09-09 11:07:20",test,3,3,1,7884
1160898,8,399,"2015-09-09 11:07:20",test,1,1,1,2677
1160898,9,399,"2015-09-09 11:07:20",test,3,3,1,17429
1160898,10,399,"2015-09-09 11:07:20",test,3,1,0,4304
1160898,11,399,"2015-09-09 11:07:20",test,4,4,1,7706
1160898,12,399,"2015-09-09 11:07:20",test,4,2,0,5895
1160898,13,399,"2015-09-09 11:07:20",test,1,3,0,7393
1160898,14,399,"2015-09-09 11:07:20",test,5,5,1,6972
1160898,15,399,"2015-09-09 11:07:20",test,1,1,1,33572
1160898,16,399,"2015-09-09 11:07:20",test,2,2,1,18984
1160898,17,399,"2015-09-09 11:07:20",test,3,3,1,5475
1160898,18,399,"2015-09-09 11:07:20",test,2,2,1,27330
1160898,19,399,"2015-09-09 11:07:20",test,5,5,1,9389
1160898,20,399,"2015-09-09 11:07:20",test,4,5,0,13997
1160898,21,399,"2015-09-09 11:07:20",test,2,2,1,5584
1160898,22,399,"2015-09-09 11:07:20",test,1,1,1,8743
1160898,23,399,"2015-09-09 11:07:20",test,2,1,0,9679
1160898,24,399,"2015-09-09 11:07:20",test,5,1,0,26471
1160898,25,399,"2015-09-09 11:07:20",testsmall,3,5,0,36956
1160927,1,293,"2015-09-09 11:09:26",prac_test,3,3,1,4970
1160927,2,293,"2015-09-09 11:09:26",prac_test,1,1,1,3844
1160927,3,293,"2015-09-09 11:09:26",inst2,0,0,1,3840
1160927,4,293,"2015-09-09 11:09:26",testbig,2,2,1,5199
1160927,5,293,"2015-09-09 11:09:26",test,1,1,1,23170
1160927,6,293,"2015-09-09 11:09:26",test,4,4,1,6525
1160927,7,293,"2015-09-09 11:09:26",test,3,3,1,6666
1160927,8,293,"2015-09-09 11:09:26",test,1,1,1,4310
1160927,9,293,"2015-09-09 11:09:26",test,3,3,1,12549
1160927,10,293,"2015-09-09 11:09:26",test,3,1,0,12409
1160927,11,293,"2015-09-09 11:09:26",test,4,4,1,9102
1160927,12,293,"2015-09-09 11:09:26",test,4,4,1,5919
1160927,13,293,"2015-09-09 11:09:26",test,1,1,1,6807
1160927,14,293,"2015-09-09 11:09:26",test,5,1,0,4466
1160927,15,293,"2015-09-09 11:09:26",test,1,4,0,31064
1160927,16,293,"2015-09-09 11:09:26",test,2,2,1,9039
1160927,17,293,"2015-09-09 11:09:26",test,3,3,1,3702
1160927,18,293,"2015-09-09 11:09:26",test,2,4,0,9100
1160927,19,293,"2015-09-09 11:09:26",test,5,2,0,6041
1160927,20,293,"2015-09-09 11:09:26",test,4,2,0,22359
1160925,1,278,"2015-09-09 11:10:01",prac_test,3,3,1,6250
1160925,2,278,"2015-09-09 11:10:01",prac_test,1,1,1,3187
1160925,3,278,"2015-09-09 11:10:01",inst2,0,0,1,2071
1160925,4,278,"2015-09-09 11:10:01",testbig,2,2,1,5370
1160925,5,278,"2015-09-09 11:10:01",test,1,1,1,18267
1160925,6,278,"2015-09-09 11:10:01",test,4,2,0,17241
1160925,7,278,"2015-09-09 11:10:01",test,3,3,1,7644
1160925,8,278,"2015-09-09 11:10:01",test,1,1,1,16355
1160925,9,278,"2015-09-09 11:10:01",test,3,3,1,10250
1160925,10,278,"2015-09-09 11:10:01",test,3,3,1,9304
1160925,11,278,"2015-09-09 11:10:01",test,4,5,0,9489
1160925,12,278,"2015-09-09 11:10:01",test,4,4,1,21720
1160925,13,278,"2015-09-09 11:10:01",test,1,1,1,22827
1160925,14,278,"2015-09-09 11:10:01",test,5,1,0,5854
1160925,15,278,"2015-09-09 11:10:01",test,1,1,1,14419
1160925,16,278,"2015-09-09 11:10:01",test,2,5,0,10143
1160925,17,278,"2015-09-09 11:10:01",test,3,2,0,2330
1160925,18,278,"2015-09-09 11:10:01",test,2,2,1,861
1160925,19,278,"2015-09-09 11:10:01",test,5,1,0,3904
1160925,20,278,"2015-09-09 11:10:01",test,4,5,0,11956
1160925,21,278,"2015-09-09 11:10:01",test,2,3,0,10661
1160912,1,430,"2015-09-09 11:07:41",prac_test,3,3,1,3400
1160912,2,430,"2015-09-09 11:07:41",prac_test,1,1,1,3359
1160912,3,430,"2015-09-09 11:07:41",inst2,0,0,1,2392
1160912,4,430,"2015-09-09 11:07:41",testbig,2,2,1,26422
1160912,5,430,"2015-09-09 11:07:41",test,1,1,1,16549
1160912,6,430,"2015-09-09 11:07:41",test,4,4,1,8294
1160912,7,430,"2015-09-09 11:07:41",test,3,3,1,6067
1160912,8,430,"2015-09-09 11:07:41",test,1,1,1,9711
1160912,9,430,"2015-09-09 11:07:41",test,3,3,1,4399
1160912,10,430,"2015-09-09 11:07:41",test,3,1,0,11517
1160912,11,430,"2015-09-09 11:07:41",test,4,5,0,6965
1160912,12,430,"2015-09-09 11:07:41",test,4,4,1,4411
1160912,13,430,"2015-09-09 11:07:41",test,1,1,1,5922
1160912,14,430,"2015-09-09 11:07:41",test,5,5,1,7497
1160912,15,430,"2015-09-09 11:07:41",test,1,1,1,20178
1160912,16,430,"2015-09-09 11:07:41",test,2,2,1,9700
1160912,17,430,"2015-09-09 11:07:41",test,3,3,1,4333
1160912,18,430,"2015-09-09 11:07:41",test,2,2,1,7458
1160912,19,430,"2015-09-09 11:07:41",test,5,5,1,20512
1160912,20,430,"2015-09-09 11:07:41",test,4,4,1,12328
1160912,21,430,"2015-09-09 11:07:41",test,2,5,0,17128
1160912,22,430,"2015-09-09 11:07:41",test,1,1,1,8234
1160912,23,430,"2015-09-09 11:07:41",test,2,5,0,12313
1160912,24,430,"2015-09-09 11:07:41",test,5,5,1,7652
1160912,25,430,"2015-09-09 11:07:41",testsmall,3,4,0,25365
1160912,26,430,"2015-09-09 11:07:41",test,1,1,1,5709
1160912,27,430,"2015-09-09 11:07:41",testbig,3,4,0,18782
1160912,28,430,"2015-09-09 11:07:41",test,4,4,1,11675
1160912,29,430,"2015-09-09 11:07:41",test,3,5,0,19515
1160912,30,430,"2015-09-09 11:07:41",testbig,5,2,0,7513
1160912,31,430,"2015-09-09 11:07:41",testbig,4,1,0,16348
1160904,1,669,"2015-09-09 11:07:09",prac_test,3,3,1,14522
1160904,2,669,"2015-09-09 11:07:09",prac_test,1,1,1,3171
1160904,3,669,"2015-09-09 11:07:09",inst2,0,0,1,1181
1160904,4,669,"2015-09-09 11:07:09",testbig,2,2,1,12858
1160904,5,669,"2015-09-09 11:07:09",test,1,1,1,35322
1160904,6,669,"2015-09-09 11:07:09",test,4,4,1,17743
1160904,7,669,"2015-09-09 11:07:09",test,3,3,1,6325
1160904,8,669,"2015-09-09 11:07:09",test,1,1,1,12799
1160904,9,669,"2015-09-09 11:07:09",test,3,3,1,21763
1160904,10,669,"2015-09-09 11:07:09",test,3,3,1,9464
1160904,11,669,"2015-09-09 11:07:09",test,4,5,0,13344
1160904,12,669,"2015-09-09 11:07:09",test,4,4,1,7632
1160904,13,669,"2015-09-09 11:07:09",test,1,1,1,10578
1160904,14,669,"2015-09-09 11:07:09",test,5,5,1,6931
1160904,15,669,"2015-09-09 11:07:09",test,1,1,1,14061
1160904,16,669,"2015-09-09 11:07:09",test,2,2,1,4622
1160904,17,669,"2015-09-09 11:07:09",test,3,3,1,8896
1160904,18,669,"2015-09-09 11:07:09",test,2,2,1,8678
1160904,19,669,"2015-09-09 11:07:09",test,5,5,1,6728
1160904,20,669,"2015-09-09 11:07:09",test,4,4,1,24748
1160904,21,669,"2015-09-09 11:07:09",test,2,2,1,20408
1160904,22,669,"2015-09-09 11:07:09",test,1,1,1,24122
1160904,23,669,"2015-09-09 11:07:09",test,2,2,1,9504
1160904,24,669,"2015-09-09 11:07:09",test,5,1,0,16153
1160904,25,669,"2015-09-09 11:07:09",testsmall,3,1,0,10746
1160904,26,669,"2015-09-09 11:07:09",test,1,1,1,10053
1160904,27,669,"2015-09-09 11:07:09",testbig,3,3,1,20311
1160904,28,669,"2015-09-09 11:07:09",test,4,5,0,17478
1160904,29,669,"2015-09-09 11:07:09",test,3,5,0,18709
1160904,30,669,"2015-09-09 11:07:09",testbig,5,5,1,20941
1160904,31,669,"2015-09-09 11:07:09",testbig,4,3,0,19193
1160904,32,669,"2015-09-09 11:07:09",test,5,5,1,16603
1160904,33,669,"2015-09-09 11:07:09",test,4,2,0,22564
1160904,34,669,"2015-09-09 11:07:09",test,1,1,1,12453
1160904,35,669,"2015-09-09 11:07:09",testsmall,5,5,1,16215
1160904,36,669,"2015-09-09 11:07:09",test,3,4,0,13260
1160904,37,669,"2015-09-09 11:07:09",test,3,4,0,12949
1160904,38,669,"2015-09-09 11:07:09",testbig,1,2,0,8756
1160914,1,625,"2015-09-09 11:08:18",prac_test,3,3,1,3441
1160914,2,625,"2015-09-09 11:08:18",prac_test,1,1,1,2173
1160914,3,625,"2015-09-09 11:08:18",inst2,0,0,1,3379
1160914,4,625,"2015-09-09 11:08:18",testbig,2,2,1,7695
1160914,5,625,"2015-09-09 11:08:18",test,1,1,1,18535
1160914,6,625,"2015-09-09 11:08:18",test,4,4,1,4373
1160914,7,625,"2015-09-09 11:08:18",test,3,3,1,6509
1160914,8,625,"2015-09-09 11:08:18",test,1,1,1,5495
1160914,9,625,"2015-09-09 11:08:18",test,3,3,1,7350
1160914,10,625,"2015-09-09 11:08:18",test,3,3,1,15965
1160914,11,625,"2015-09-09 11:08:18",test,4,5,0,10987
1160914,12,625,"2015-09-09 11:08:18",test,4,4,1,8943
1160914,13,625,"2015-09-09 11:08:18",test,1,1,1,4778
1160914,14,625,"2015-09-09 11:08:18",test,5,4,0,5353
1160914,15,625,"2015-09-09 11:08:18",test,1,4,0,6387
1160914,16,625,"2015-09-09 11:08:18",test,2,2,1,23159
1160914,17,625,"2015-09-09 11:08:18",test,3,3,1,10472
1160914,18,625,"2015-09-09 11:08:18",test,2,2,1,5715
1160914,19,625,"2015-09-09 11:08:18",test,5,5,1,14964
1160914,20,625,"2015-09-09 11:08:18",test,4,4,1,21863
1160914,21,625,"2015-09-09 11:08:18",test,2,5,0,11987
1160914,22,625,"2015-09-09 11:08:18",test,1,3,0,34450
1160914,23,625,"2015-09-09 11:08:18",test,2,1,0,14668
1160933,1,503,"2015-09-09 11:10:45",prac_test,3,3,1,3277
1160933,2,503,"2015-09-09 11:10:45",prac_test,1,1,1,2996
1160933,3,503,"2015-09-09 11:10:45",inst2,0,0,1,1613
1160933,4,503,"2015-09-09 11:10:45",testbig,2,2,1,6340
1160933,5,503,"2015-09-09 11:10:45",test,1,1,1,3670
1160933,6,503,"2015-09-09 11:10:45",test,4,4,1,7370
1160933,7,503,"2015-09-09 11:10:45",test,3,3,1,6650
1160933,8,503,"2015-09-09 11:10:45",test,1,1,1,3124
1160933,9,503,"2015-09-09 11:10:45",test,3,3,1,8862
1160933,10,503,"2015-09-09 11:10:45",test,3,3,1,11018
1160933,11,503,"2015-09-09 11:10:45",test,4,5,0,8241
1160933,12,503,"2015-09-09 11:10:45",test,4,4,1,7542
1160933,13,503,"2015-09-09 11:10:45",test,1,1,1,6946
1160933,14,503,"2015-09-09 11:10:45",test,5,5,1,10017
1160933,15,503,"2015-09-09 11:10:45",test,1,3,0,25371
1160933,16,503,"2015-09-09 11:10:45",test,2,4,0,8766
1160933,17,503,"2015-09-09 11:10:45",test,3,3,1,4497
1160933,18,503,"2015-09-09 11:10:45",test,2,4,0,4058
1160933,19,503,"2015-09-09 11:10:45",test,5,5,1,6774
1160933,20,503,"2015-09-09 11:10:45",test,4,5,0,23809
1160933,21,503,"2015-09-09 11:10:45",test,2,2,1,11377
1160933,22,503,"2015-09-09 11:10:45",test,1,1,1,4468
1160933,23,503,"2015-09-09 11:10:45",test,2,1,0,7978
1160933,24,503,"2015-09-09 11:10:45",test,5,5,1,5872
1160933,25,503,"2015-09-09 11:10:45",testsmall,3,3,1,37191
1160933,26,503,"2015-09-09 11:10:45",test,1,1,1,11299
1160933,27,503,"2015-09-09 11:10:45",testbig,3,5,0,7801
1160933,28,503,"2015-09-09 11:10:45",test,4,3,0,12079
1160933,29,503,"2015-09-09 11:10:45",test,3,1,0,23574
1160926,1,497,"2015-09-09 11:12:40",prac_test,3,3,1,4941
1160926,2,497,"2015-09-09 11:12:40",prac_test,1,1,1,2300
1160926,3,497,"2015-09-09 11:12:40",inst2,0,0,1,3239
1160926,4,497,"2015-09-09 11:12:40",testbig,2,2,1,4723
1160926,5,497,"2015-09-09 11:12:40",test,1,1,1,5348
1160926,6,497,"2015-09-09 11:12:40",test,4,4,1,5334
1160926,7,497,"2015-09-09 11:12:40",test,3,3,1,8767
1160926,8,497,"2015-09-09 11:12:40",test,1,1,1,8205
1160926,9,497,"2015-09-09 11:12:40",test,3,3,1,15776
1160926,10,497,"2015-09-09 11:12:40",test,3,1,0,5681
1160926,11,497,"2015-09-09 11:12:40",test,4,5,0,8849
1160926,12,497,"2015-09-09 11:12:40",test,4,4,1,6239
1160926,13,497,"2015-09-09 11:12:40",test,1,1,1,4225
1160926,14,497,"2015-09-09 11:12:40",test,5,5,1,6749
1160926,15,497,"2015-09-09 11:12:40",test,1,4,0,7201
1160926,16,497,"2015-09-09 11:12:40",test,2,2,1,6097
1160926,17,497,"2015-09-09 11:12:40",test,3,3,1,7415
1160926,18,497,"2015-09-09 11:12:40",test,2,2,1,8522
1160926,19,497,"2015-09-09 11:12:40",test,5,5,1,11127
1160926,20,497,"2015-09-09 11:12:40",test,4,4,1,29816
1160926,21,497,"2015-09-09 11:12:40",test,2,2,1,8195
1160926,22,497,"2015-09-09 11:12:40",test,1,1,1,31031
1160926,23,497,"2015-09-09 11:12:40",test,2,1,0,8150
1160926,24,497,"2015-09-09 11:12:40",test,5,3,0,19362
1160926,25,497,"2015-09-09 11:12:40",testsmall,3,3,1,23259
1160926,26,497,"2015-09-09 11:12:40",test,1,1,1,5418
1160926,27,497,"2015-09-09 11:12:40",testbig,3,4,0,17786
1160926,28,497,"2015-09-09 11:12:40",test,4,3,0,48726
1160926,29,497,"2015-09-09 11:12:40",test,3,3,1,14967
1160926,30,497,"2015-09-09 11:12:40",testbig,5,2,0,14029
1160926,31,497,"2015-09-09 11:12:40",testbig,4,2,0,23795
1160926,32,497,"2015-09-09 11:12:40",test,5,1,0,16629
1160930,1,504,"2015-09-09 11:12:44",prac_test,3,3,1,3596
1160930,2,504,"2015-09-09 11:12:44",prac_test,1,1,1,2993
1160930,3,504,"2015-09-09 11:12:44",inst2,0,0,1,1482
1160930,4,504,"2015-09-09 11:12:44",testbig,2,2,1,4172
1160930,5,504,"2015-09-09 11:12:44",test,1,1,1,7535
1160930,6,504,"2015-09-09 11:12:44",test,4,4,1,4013
1160930,7,504,"2015-09-09 11:12:44",test,3,3,1,4652
1160930,8,504,"2015-09-09 11:12:44",test,1,1,1,8912
1160930,9,504,"2015-09-09 11:12:44",test,3,3,1,12765
1160930,10,504,"2015-09-09 11:12:44",test,3,3,1,16198
1160930,11,504,"2015-09-09 11:12:44",test,4,5,0,6258
1160930,12,504,"2015-09-09 11:12:44",test,4,4,1,5495
1160930,13,504,"2015-09-09 11:12:44",test,1,1,1,6666
1160930,14,504,"2015-09-09 11:12:44",test,5,5,1,8244
1160930,15,504,"2015-09-09 11:12:44",test,1,1,1,7476
1160930,16,504,"2015-09-09 11:12:44",test,2,2,1,6917
1160930,17,504,"2015-09-09 11:12:44",test,3,3,1,5179
1160930,18,504,"2015-09-09 11:12:44",test,2,2,1,9848
1160930,19,504,"2015-09-09 11:12:44",test,5,5,1,7409
1160930,20,504,"2015-09-09 11:12:44",test,4,5,0,18087
1160930,21,504,"2015-09-09 11:12:44",test,2,2,1,21047
1160930,22,504,"2015-09-09 11:12:44",test,1,1,1,10893
1160930,23,504,"2015-09-09 11:12:44",test,2,2,1,11047
1160930,24,504,"2015-09-09 11:12:44",test,5,5,1,17333
1160930,25,504,"2015-09-09 11:12:44",testsmall,3,4,0,8064
1160930,26,504,"2015-09-09 11:12:44",test,1,1,1,5199
1160930,27,504,"2015-09-09 11:12:44",testbig,3,3,1,29943
1160930,28,504,"2015-09-09 11:12:44",test,4,4,1,15635
1160930,29,504,"2015-09-09 11:12:44",test,3,4,0,9770
1160930,30,504,"2015-09-09 11:12:44",testbig,5,5,1,13420
1160930,31,504,"2015-09-09 11:12:44",testbig,4,2,0,13768
1160930,32,504,"2015-09-09 11:12:44",test,5,5,1,20596
1160930,33,504,"2015-09-09 11:12:44",test,4,5,0,19740
1160930,34,504,"2015-09-09 11:12:44",test,1,5,0,9630
1160930,35,504,"2015-09-09 11:12:44",testsmall,5,5,1,29208
1160930,36,504,"2015-09-09 11:12:44",test,3,4,0,5168
1160930,37,504,"2015-09-09 11:12:44",test,3,5,0,5524
1160930,38,504,"2015-09-09 11:12:44",testbig,1,4,0,13933
1161174,1,418,"2015-09-09 13:09:42",prac_test,3,3,1,16499
1161174,2,418,"2015-09-09 13:09:42",prac_test,1,1,1,4450
1161174,3,418,"2015-09-09 13:09:42",inst2,0,0,1,17661
1161174,4,418,"2015-09-09 13:09:42",testbig,2,2,1,12814
1161174,5,418,"2015-09-09 13:09:42",test,1,1,1,16870
1161174,6,418,"2015-09-09 13:09:42",test,4,4,1,6433
1161174,7,418,"2015-09-09 13:09:42",test,3,3,1,6199
1161174,8,418,"2015-09-09 13:09:42",test,1,1,1,4435
1161174,9,418,"2015-09-09 13:09:42",test,3,3,1,12047
1161174,10,418,"2015-09-09 13:09:42",test,3,3,1,8024
1161174,11,418,"2015-09-09 13:09:42",test,4,1,0,10110
1161174,12,418,"2015-09-09 13:09:42",test,4,4,1,7490
1161174,13,418,"2015-09-09 13:09:42",test,1,1,1,15683
1161174,14,418,"2015-09-09 13:09:42",test,5,2,0,6213
1161174,15,418,"2015-09-09 13:09:42",test,1,1,1,9226
1161174,16,418,"2015-09-09 13:09:42",test,2,1,0,14963
1161174,17,418,"2015-09-09 13:09:42",test,3,3,1,8288
1161174,18,418,"2015-09-09 13:09:42",test,2,2,1,7900
1161174,19,418,"2015-09-09 13:09:42",test,5,5,1,20966
1161174,20,418,"2015-09-09 13:09:42",test,4,5,0,26232
1161174,21,418,"2015-09-09 13:09:42",test,2,4,0,5901
1161174,22,418,"2015-09-09 13:09:42",test,1,1,1,8350
1161174,23,418,"2015-09-09 13:09:42",test,2,1,0,4169
1161174,24,418,"2015-09-09 13:09:42",test,5,1,0,21236
1161174,25,418,"2015-09-09 13:09:42",testsmall,3,3,1,20137
1161174,26,418,"2015-09-09 13:09:42",test,1,1,1,18680
1161174,27,418,"2015-09-09 13:09:42",testbig,3,3,1,24418
1161174,28,418,"2015-09-09 13:09:42",test,4,3,0,9423
1161174,29,418,"2015-09-09 13:09:42",test,3,5,0,14857
1161174,30,418,"2015-09-09 13:09:42",testbig,5,2,0,13748
1161178,1,329,"2015-09-09 13:16:53",prac_test,3,3,1,5549
1161178,2,329,"2015-09-09 13:16:53",prac_test,1,1,1,3765
1161178,3,329,"2015-09-09 13:16:53",inst2,0,0,1,1245
1161178,4,329,"2015-09-09 13:16:53",testbig,2,2,1,4887
1161178,5,329,"2015-09-09 13:16:53",test,1,1,1,13233
1161178,6,329,"2015-09-09 13:16:53",test,4,4,1,6987
1161178,7,329,"2015-09-09 13:16:53",test,3,3,1,7237
1161178,8,329,"2015-09-09 13:16:53",test,1,1,1,5462
1161178,9,329,"2015-09-09 13:16:53",test,3,4,0,30018
1161178,10,329,"2015-09-09 13:16:53",test,3,1,0,18763
1161178,11,329,"2015-09-09 13:16:53",test,4,5,0,11475
1161176,1,295,"2015-09-09 13:18:09",prac_test,3,3,1,6296
1161176,2,295,"2015-09-09 13:18:09",prac_test,1,1,1,2237
1161176,3,295,"2015-09-09 13:18:09",inst2,0,0,1,2753
1161176,4,295,"2015-09-09 13:18:09",testbig,2,2,1,4840
1161176,5,295,"2015-09-09 13:18:09",test,1,1,1,6899
1161176,6,295,"2015-09-09 13:18:09",test,4,4,1,6338
1161176,7,295,"2015-09-09 13:18:09",test,3,3,1,6480
1161176,8,295,"2015-09-09 13:18:09",test,1,1,1,3530
1161176,9,295,"2015-09-09 13:18:09",test,3,3,1,7165
1161176,10,295,"2015-09-09 13:18:09",test,3,3,1,18412
1161176,11,295,"2015-09-09 13:18:09",test,4,5,0,10770
1161176,12,295,"2015-09-09 13:18:09",test,4,4,1,4856
1161176,13,295,"2015-09-09 13:18:09",test,1,3,0,3639
1161176,14,295,"2015-09-09 13:18:09",test,5,2,0,6226
1161176,15,295,"2015-09-09 13:18:09",test,1,1,1,11829
1161176,16,295,"2015-09-09 13:18:09",test,2,1,0,6634
1161176,17,295,"2015-09-09 13:18:09",test,3,3,1,10721
1161176,18,295,"2015-09-09 13:18:09",test,2,4,0,3857
1161176,19,295,"2015-09-09 13:18:09",test,5,2,0,5168
1161176,20,295,"2015-09-09 13:18:09",test,4,5,0,14608
1161185,1,450,"2015-09-09 13:15:43",prac_test,3,3,1,6729
1161185,2,450,"2015-09-09 13:15:43",prac_test,1,1,1,2594
1161185,3,450,"2015-09-09 13:15:43",inst2,0,0,1,2524
1161185,4,450,"2015-09-09 13:15:43",testbig,2,2,1,5280
1161185,5,450,"2015-09-09 13:15:43",test,1,1,1,6016
1161185,6,450,"2015-09-09 13:15:43",test,4,4,1,4827
1161185,7,450,"2015-09-09 13:15:43",test,3,3,1,5951
1161185,8,450,"2015-09-09 13:15:43",test,1,1,1,2736
1161185,9,450,"2015-09-09 13:15:43",test,3,3,1,4390
1161185,10,450,"2015-09-09 13:15:43",test,3,3,1,9134
1161185,11,450,"2015-09-09 13:15:43",test,4,5,0,7637
1161185,12,450,"2015-09-09 13:15:43",test,4,4,1,5033
1161185,13,450,"2015-09-09 13:15:43",test,1,3,0,3938
1161185,14,450,"2015-09-09 13:15:43",test,5,5,1,7326
1161185,15,450,"2015-09-09 13:15:43",test,1,4,0,8551
1161185,16,450,"2015-09-09 13:15:43",test,2,2,1,7120
1161185,17,450,"2015-09-09 13:15:43",test,3,3,1,2797
1161185,18,450,"2015-09-09 13:15:43",test,2,2,1,8090
1161185,19,450,"2015-09-09 13:15:43",test,5,3,0,5450
1161185,20,450,"2015-09-09 13:15:43",test,4,4,1,9037
1161185,21,450,"2015-09-09 13:15:43",test,2,5,0,7448
1161185,22,450,"2015-09-09 13:15:43",test,1,5,0,11720
1161185,23,450,"2015-09-09 13:15:43",test,2,1,0,5168
1161187,1,384,"2015-09-09 13:17:12",prac_test,3,3,1,10695
1161187,2,384,"2015-09-09 13:17:12",prac_test,1,1,1,3112
1161187,3,384,"2015-09-09 13:17:12",inst2,0,0,1,1616
1161187,4,384,"2015-09-09 13:17:12",testbig,2,1,0,7979
1161187,5,384,"2015-09-09 13:17:12",test,1,1,1,6915
1161187,6,384,"2015-09-09 13:17:12",test,4,4,1,9333
1161187,7,384,"2015-09-09 13:17:12",test,3,3,1,15076
1161187,8,384,"2015-09-09 13:17:12",test,1,1,1,4076
1161187,9,384,"2015-09-09 13:17:12",test,3,3,1,11302
1161187,10,384,"2015-09-09 13:17:12",test,3,1,0,7619
1161187,11,384,"2015-09-09 13:17:12",test,4,5,0,11532
1161187,12,384,"2015-09-09 13:17:12",test,4,4,1,9408
1161187,13,384,"2015-09-09 13:17:12",test,1,3,0,6650
1161187,14,384,"2015-09-09 13:17:12",test,5,5,1,3782
1161187,15,384,"2015-09-09 13:17:12",test,1,1,1,7867
1161187,16,384,"2015-09-09 13:17:12",test,2,1,0,14512
1161187,17,384,"2015-09-09 13:17:12",test,3,3,1,5202
1161187,18,384,"2015-09-09 13:17:12",test,2,4,0,7429
1161187,19,384,"2015-09-09 13:17:12",test,5,1,0,9664
1161187,20,384,"2015-09-09 13:17:12",test,4,1,0,11956
1161197,1,232,"2015-09-09 13:20:45",prac_test,3,3,1,10234
1161197,2,232,"2015-09-09 13:20:45",prac_test,1,1,1,9585
1161197,3,232,"2015-09-09 13:20:45",inst2,0,0,1,3853
1161197,4,232,"2015-09-09 13:20:45",testbig,2,2,1,12546
1161197,5,232,"2015-09-09 13:20:45",test,1,1,1,17854
1161197,6,232,"2015-09-09 13:20:45",test,4,2,0,19788
1161197,7,232,"2015-09-09 13:20:45",test,3,3,1,7097
1161197,8,232,"2015-09-09 13:20:45",test,1,1,1,6260
1161197,9,232,"2015-09-09 13:20:45",test,3,4,0,18506
1161197,10,232,"2015-09-09 13:20:45",test,3,2,0,16384
1161197,11,232,"2015-09-09 13:20:45",test,4,5,0,10191
1161194,1,270,"2015-09-09 13:20:47",prac_test,3,3,1,6809
1161194,2,270,"2015-09-09 13:20:47",prac_test,1,1,1,2812
1161194,3,270,"2015-09-09 13:20:47",inst2,0,0,1,2497
1161194,4,270,"2015-09-09 13:20:47",testbig,2,2,1,13955
1161194,5,270,"2015-09-09 13:20:47",test,1,1,1,18662
1161194,6,270,"2015-09-09 13:20:47",test,4,4,1,5230
1161194,7,270,"2015-09-09 13:20:47",test,3,3,1,5888
1161194,8,270,"2015-09-09 13:20:47",test,1,1,1,4900
1161194,9,270,"2015-09-09 13:20:47",test,3,1,0,14840
1161194,10,270,"2015-09-09 13:20:47",test,3,3,1,14601
1161194,11,270,"2015-09-09 13:20:47",test,4,5,0,6977
1161194,12,270,"2015-09-09 13:20:47",test,4,4,1,9333
1161194,13,270,"2015-09-09 13:20:47",test,1,3,0,7648
1161194,14,270,"2015-09-09 13:20:47",test,5,1,0,6026
1161194,15,270,"2015-09-09 13:20:47",test,1,1,1,6863
1161194,16,270,"2015-09-09 13:20:47",test,2,3,0,12407
1161194,17,270,"2015-09-09 13:20:47",test,3,5,0,13093
1161194,18,270,"2015-09-09 13:20:47",test,2,5,0,13529
1161183,1,547,"2015-09-09 13:16:30",prac_test,3,3,1,2367
1161183,2,547,"2015-09-09 13:16:30",prac_test,1,1,1,2105
1161183,3,547,"2015-09-09 13:16:30",inst2,0,0,1,2817
1161183,4,547,"2015-09-09 13:16:30",testbig,2,2,1,11005
1161183,5,547,"2015-09-09 13:16:30",test,1,1,1,10144
1161183,6,547,"2015-09-09 13:16:30",test,4,4,1,6242
1161183,7,547,"2015-09-09 13:16:30",test,3,1,0,12126
1161183,8,547,"2015-09-09 13:16:30",test,1,1,1,3103
1161183,9,547,"2015-09-09 13:16:30",test,3,3,1,19769
1161183,10,547,"2015-09-09 13:16:30",test,3,1,0,8397
1161183,11,547,"2015-09-09 13:16:30",test,4,5,0,9271
1161183,12,547,"2015-09-09 13:16:30",test,4,4,1,7181
1161183,13,547,"2015-09-09 13:16:30",test,1,1,1,7662
1161183,14,547,"2015-09-09 13:16:30",test,5,5,1,16184
1161183,15,547,"2015-09-09 13:16:30",test,1,1,1,20831
1161183,16,547,"2015-09-09 13:16:30",test,2,1,0,11410
1161183,17,547,"2015-09-09 13:16:30",test,3,3,1,5664
1161183,18,547,"2015-09-09 13:16:30",test,2,2,1,22298
1161183,19,547,"2015-09-09 13:16:30",test,5,2,0,11846
1161183,20,547,"2015-09-09 13:16:30",test,4,4,1,11124
1161183,21,547,"2015-09-09 13:16:30",test,2,2,1,9298
1161183,22,547,"2015-09-09 13:16:30",test,1,1,1,21386
1161183,23,547,"2015-09-09 13:16:30",test,2,2,1,10465
1161183,24,547,"2015-09-09 13:16:30",test,5,3,0,12500
1161183,25,547,"2015-09-09 13:16:30",testsmall,3,4,0,26893
1161183,26,547,"2015-09-09 13:16:30",test,1,5,0,11948
1161182,1,699,"2015-09-09 13:15:16",prac_test,3,3,1,7196
1161182,2,699,"2015-09-09 13:15:16",prac_test,1,1,1,2659
1161182,3,699,"2015-09-09 13:15:16",inst2,0,0,1,2079
1161182,4,699,"2015-09-09 13:15:16",testbig,2,2,1,5089
1161182,5,699,"2015-09-09 13:15:16",test,1,3,0,19312
1161182,6,699,"2015-09-09 13:15:16",test,4,4,1,5418
1161182,7,699,"2015-09-09 13:15:16",test,3,3,1,5340
1161182,8,699,"2015-09-09 13:15:16",test,1,1,1,3795
1161182,9,699,"2015-09-09 13:15:16",test,3,3,1,7053
1161182,10,699,"2015-09-09 13:15:16",test,3,3,1,18428
1161182,11,699,"2015-09-09 13:15:16",test,4,5,0,9655
1161182,12,699,"2015-09-09 13:15:16",test,4,4,1,5137
1161182,13,699,"2015-09-09 13:15:16",test,1,2,0,6682
1161182,14,699,"2015-09-09 13:15:16",test,5,2,0,7489
1161182,15,699,"2015-09-09 13:15:16",test,1,1,1,13529
1161182,16,699,"2015-09-09 13:15:16",test,2,1,0,6931
1161182,17,699,"2015-09-09 13:15:16",test,3,4,0,9110
1161182,18,699,"2015-09-09 13:15:16",test,2,2,1,7710
1161182,19,699,"2015-09-09 13:15:16",test,5,1,0,4509
1161182,20,699,"2015-09-09 13:15:16",test,4,4,1,15683
1161182,21,699,"2015-09-09 13:15:16",test,2,5,0,7960
1161182,22,699,"2015-09-09 13:15:16",test,1,1,1,15794
1161182,23,699,"2015-09-09 13:15:16",test,2,2,1,23884
1161182,24,699,"2015-09-09 13:15:16",test,5,5,1,9334
1161182,25,699,"2015-09-09 13:15:16",testsmall,3,5,0,16106
1161182,26,699,"2015-09-09 13:15:16",test,1,5,0,10849
1161182,27,699,"2015-09-09 13:15:16",testbig,3,3,1,8789
1161182,28,699,"2015-09-09 13:15:16",test,4,3,0,13264
1161182,29,699,"2015-09-09 13:15:16",test,3,4,0,16010
1161182,30,699,"2015-09-09 13:15:16",testbig,5,5,1,5433
1161182,31,699,"2015-09-09 13:15:16",testbig,4,4,1,25916
1161182,32,699,"2015-09-09 13:15:16",test,5,1,0,13903
1161182,33,699,"2015-09-09 13:15:16",test,4,5,0,10255
1161182,34,699,"2015-09-09 13:15:16",test,1,5,0,12983
1161184,1,550,"2015-09-09 13:18:02",prac_test,3,3,1,3697
1161184,2,550,"2015-09-09 13:18:02",prac_test,1,1,1,2966
1161184,3,550,"2015-09-09 13:18:02",inst2,0,0,1,1658
1161184,4,550,"2015-09-09 13:18:02",testbig,2,2,1,6608
1161184,5,550,"2015-09-09 13:18:02",test,1,1,1,12988
1161184,6,550,"2015-09-09 13:18:02",test,4,4,1,9499
1161184,7,550,"2015-09-09 13:18:02",test,3,3,1,4089
1161184,8,550,"2015-09-09 13:18:02",test,1,1,1,3366
1161184,9,550,"2015-09-09 13:18:02",test,3,3,1,8838
1161184,10,550,"2015-09-09 13:18:02",test,3,1,0,10453
1161184,11,550,"2015-09-09 13:18:02",test,4,1,0,672
1161184,12,550,"2015-09-09 13:18:02",test,4,4,1,5371
1161184,13,550,"2015-09-09 13:18:02",test,1,1,1,13922
1161184,14,550,"2015-09-09 13:18:02",test,5,3,0,10711
1161184,15,550,"2015-09-09 13:18:02",test,1,1,1,8270
1161184,16,550,"2015-09-09 13:18:02",test,2,2,1,9077
1161184,17,550,"2015-09-09 13:18:02",test,3,3,1,6291
1161184,18,550,"2015-09-09 13:18:02",test,2,2,1,11221
1161184,19,550,"2015-09-09 13:18:02",test,5,3,0,6231
1161184,20,550,"2015-09-09 13:18:02",test,4,2,0,15
1161184,21,550,"2015-09-09 13:18:02",test,2,2,1,5936
1161184,22,550,"2015-09-09 13:18:02",test,1,2,0,22851
1161184,23,550,"2015-09-09 13:18:02",test,2,2,1,22174
1161184,24,550,"2015-09-09 13:18:02",test,5,4,0,5888
1161184,25,550,"2015-09-09 13:18:02",testsmall,3,1,0,12024
1161184,26,550,"2015-09-09 13:18:02",test,1,1,1,4521
1161184,27,550,"2015-09-09 13:18:02",testbig,3,1,0,15695
1161184,28,550,"2015-09-09 13:18:02",test,4,4,1,10589
1161184,29,550,"2015-09-09 13:18:02",test,3,5,0,20684
1161184,30,550,"2015-09-09 13:18:02",testbig,5,1,0,7123
1161184,31,550,"2015-09-09 13:18:02",testbig,4,5,0,3618
1161186,1,578,"2015-09-09 13:19:06",prac_test,3,3,1,5719
1161186,2,578,"2015-09-09 13:19:06",prac_test,1,1,1,1865
1161186,3,578,"2015-09-09 13:19:06",inst2,0,0,1,878
1161186,4,578,"2015-09-09 13:19:06",testbig,2,2,1,4500
1161186,5,578,"2015-09-09 13:19:06",test,1,1,1,6121
1161186,6,578,"2015-09-09 13:19:06",test,4,4,1,4871
1161186,7,578,"2015-09-09 13:19:06",test,3,3,1,7679
1161186,8,578,"2015-09-09 13:19:06",test,1,1,1,8636
1161186,9,578,"2015-09-09 13:19:06",test,3,3,1,12645
1161186,10,578,"2015-09-09 13:19:06",test,3,3,1,6324
1161186,11,578,"2015-09-09 13:19:06",test,4,5,0,8663
1161186,12,578,"2015-09-09 13:19:06",test,4,4,1,10214
1161186,13,578,"2015-09-09 13:19:06",test,1,1,1,10365
1161186,14,578,"2015-09-09 13:19:06",test,5,5,1,16877
1161186,15,578,"2015-09-09 13:19:06",test,1,1,1,12525
1161186,16,578,"2015-09-09 13:19:06",test,2,5,0,12755
1161186,17,578,"2015-09-09 13:19:06",test,3,3,1,8547
1161186,18,578,"2015-09-09 13:19:06",test,2,2,1,8190
1161186,19,578,"2015-09-09 13:19:06",test,5,5,1,9754
1161186,20,578,"2015-09-09 13:19:06",test,4,4,1,12705
1161186,21,578,"2015-09-09 13:19:06",test,2,2,1,10781
1161186,22,578,"2015-09-09 13:19:06",test,1,1,1,11724
1161186,23,578,"2015-09-09 13:19:06",test,2,4,0,16465
1161186,24,578,"2015-09-09 13:19:06",test,5,5,1,24923
1161186,25,578,"2015-09-09 13:19:06",testsmall,3,1,0,20066
1161186,26,578,"2015-09-09 13:19:06",test,1,1,1,5348
1161186,27,578,"2015-09-09 13:19:06",testbig,3,3,1,26574
1161186,28,578,"2015-09-09 13:19:06",test,4,3,0,16416
1161186,29,578,"2015-09-09 13:19:06",test,3,3,1,20742
1161186,30,578,"2015-09-09 13:19:06",testbig,5,3,0,5949
1161186,31,578,"2015-09-09 13:19:06",testbig,4,4,1,12058
1161186,32,578,"2015-09-09 13:19:06",test,5,4,0,24483
1161186,33,578,"2015-09-09 13:19:06",test,4,4,1,25982
1161186,34,578,"2015-09-09 13:19:06",test,1,3,0,15729
1161186,35,578,"2015-09-09 13:19:06",testsmall,5,3,0,18483
1161186,36,578,"2015-09-09 13:19:06",test,3,3,1,16509
1161186,37,578,"2015-09-09 13:19:06",test,3,5,0,14998
1161186,38,578,"2015-09-09 13:19:06",testbig,1,2,0,10350
1161193,1,678,"2015-09-09 13:18:07",prac_test,3,3,1,5314
1161193,2,678,"2015-09-09 13:18:07",prac_test,1,1,1,4188
1161193,3,678,"2015-09-09 13:18:07",inst2,0,0,1,2723
1161193,4,678,"2015-09-09 13:18:07",testbig,2,2,1,9687
1161193,5,678,"2015-09-09 13:18:07",test,1,1,1,14026
1161193,6,678,"2015-09-09 13:18:07",test,4,4,1,17643
1161193,7,678,"2015-09-09 13:18:07",test,3,3,1,5152
1161193,8,678,"2015-09-09 13:18:07",test,1,1,1,6666
1161193,9,678,"2015-09-09 13:18:07",test,3,3,1,9583
1161193,10,678,"2015-09-09 13:18:07",test,3,3,1,26039
1161193,11,678,"2015-09-09 13:18:07",test,4,4,1,12524
1161193,12,678,"2015-09-09 13:18:07",test,4,4,1,12529
1161193,13,678,"2015-09-09 13:18:07",test,1,1,1,9552
1161193,14,678,"2015-09-09 13:18:07",test,5,5,1,26471
1161193,15,678,"2015-09-09 13:18:07",test,1,4,0,39052
1161193,16,678,"2015-09-09 13:18:07",test,2,5,0,14553
1161193,17,678,"2015-09-09 13:18:07",test,3,3,1,4334
1161193,18,678,"2015-09-09 13:18:07",test,2,2,1,5818
1161193,19,678,"2015-09-09 13:18:07",test,5,4,0,17985
1161193,20,678,"2015-09-09 13:18:07",test,4,4,1,8802
1161193,21,678,"2015-09-09 13:18:07",test,2,5,0,6457
1161193,22,678,"2015-09-09 13:18:07",test,1,3,0,12216
1161193,23,678,"2015-09-09 13:18:07",test,2,2,1,12586
1161193,24,678,"2015-09-09 13:18:07",test,5,3,0,11611
1161193,25,678,"2015-09-09 13:18:07",testsmall,3,4,0,17416
1161193,26,678,"2015-09-09 13:18:07",test,1,1,1,24329
1161193,27,678,"2015-09-09 13:18:07",testbig,3,5,0,22415
1161193,28,678,"2015-09-09 13:18:07",test,4,1,0,23793
1161193,29,678,"2015-09-09 13:18:07",test,3,5,0,21792
1161243,1,350,"2015-09-09 14:03:26",prac_test,3,3,1,4327
1161243,2,350,"2015-09-09 14:03:26",prac_test,1,1,1,2531
1161243,3,350,"2015-09-09 14:03:26",inst2,0,0,1,1073
1161243,4,350,"2015-09-09 14:03:26",testbig,2,2,1,10269
1161243,5,350,"2015-09-09 14:03:26",test,1,1,1,17196
1161243,6,350,"2015-09-09 14:03:26",test,4,3,0,6510
1161243,7,350,"2015-09-09 14:03:26",test,3,3,1,7539
1161243,8,350,"2015-09-09 14:03:26",test,1,1,1,4123
1161243,9,350,"2015-09-09 14:03:26",test,3,3,1,8195
1161243,10,350,"2015-09-09 14:03:26",test,3,1,0,14576
1161243,11,350,"2015-09-09 14:03:26",test,4,5,0,9708
1161243,12,350,"2015-09-09 14:03:26",test,4,4,1,6604
1161243,13,350,"2015-09-09 14:03:26",test,1,2,0,6102
1161243,14,350,"2015-09-09 14:03:26",test,5,1,0,9661
1161243,15,350,"2015-09-09 14:03:26",test,1,2,0,8972
1161245,1,424,"2015-09-09 14:02:21",prac_test,3,3,1,4861
1161245,2,424,"2015-09-09 14:02:21",prac_test,1,1,1,1986
1161245,3,424,"2015-09-09 14:02:21",inst2,0,0,1,1970
1161245,4,424,"2015-09-09 14:02:21",testbig,2,1,0,2796
1161245,5,424,"2015-09-09 14:02:21",test,1,1,1,3774
1161245,6,424,"2015-09-09 14:02:21",test,4,2,0,1359
1161245,7,424,"2015-09-09 14:02:21",test,3,3,1,2362
1161245,8,424,"2015-09-09 14:02:21",test,1,1,1,3252
1161245,9,424,"2015-09-09 14:02:21",test,3,1,0,2890
1161245,10,424,"2015-09-09 14:02:21",test,3,1,0,5200
1161245,11,424,"2015-09-09 14:02:21",test,4,5,0,10177
1161244,1,235,"2015-09-09 14:05:36",prac_test,3,3,1,32629
1161244,2,235,"2015-09-09 14:05:36",prac_test,1,1,1,7434
1161244,3,235,"2015-09-09 14:05:36",inst2,0,0,1,2638
1161244,4,235,"2015-09-09 14:05:36",testbig,2,2,1,10783
1161244,5,235,"2015-09-09 14:05:36",test,1,3,0,36759
1161244,6,235,"2015-09-09 14:05:36",test,4,4,1,8508
1161244,7,235,"2015-09-09 14:05:36",test,3,3,1,4461
1161244,8,235,"2015-09-09 14:05:36",test,1,1,1,4965
1161244,9,235,"2015-09-09 14:05:36",test,3,4,0,15792
1161244,10,235,"2015-09-09 14:05:36",test,3,1,0,15778
1161244,11,235,"2015-09-09 14:05:36",test,4,5,0,16198
1161255,1,318,"2015-09-09 14:05:54",prac_test,3,3,1,6779
1161255,2,318,"2015-09-09 14:05:54",prac_test,1,1,1,3515
1161255,3,318,"2015-09-09 14:05:54",inst2,0,0,1,5840
1161255,4,318,"2015-09-09 14:05:54",testbig,2,2,1,12411
1161255,5,318,"2015-09-09 14:05:54",test,1,1,1,45301
1161255,6,318,"2015-09-09 14:05:54",test,4,4,1,9983
1161255,7,318,"2015-09-09 14:05:54",test,3,3,1,5121
1161255,8,318,"2015-09-09 14:05:54",test,1,1,1,7456
1161255,9,318,"2015-09-09 14:05:54",test,3,4,0,7862
1161255,10,318,"2015-09-09 14:05:54",test,3,1,0,17183
1161255,11,318,"2015-09-09 14:05:54",test,4,1,0,5625
1161241,1,540,"2015-09-09 14:02:47",prac_test,3,3,1,4049
1161241,2,540,"2015-09-09 14:02:47",prac_test,1,1,1,2534
1161241,3,540,"2015-09-09 14:02:47",inst2,0,0,1,1900
1161241,4,540,"2015-09-09 14:02:47",testbig,2,2,1,8256
1161241,5,540,"2015-09-09 14:02:47",test,1,1,1,13483
1161241,6,540,"2015-09-09 14:02:47",test,4,4,1,5935
1161241,7,540,"2015-09-09 14:02:47",test,3,3,1,5041
1161241,8,540,"2015-09-09 14:02:47",test,1,1,1,4795
1161241,9,540,"2015-09-09 14:02:47",test,3,3,1,7053
1161241,10,540,"2015-09-09 14:02:47",test,3,1,0,6026
1161241,11,540,"2015-09-09 14:02:47",test,4,5,0,6276
1161241,12,540,"2015-09-09 14:02:47",test,4,4,1,8335
1161241,13,540,"2015-09-09 14:02:47",test,1,1,1,4779
1161241,14,540,"2015-09-09 14:02:47",test,5,5,1,6788
1161241,15,540,"2015-09-09 14:02:47",test,1,1,1,10488
1161241,16,540,"2015-09-09 14:02:47",test,2,2,1,10909
1161241,17,540,"2015-09-09 14:02:47",test,3,3,1,4513
1161241,18,540,"2015-09-09 14:02:47",test,2,2,1,5433
1161241,19,540,"2015-09-09 14:02:47",test,5,5,1,6792
1161241,20,540,"2015-09-09 14:02:47",test,4,4,1,8928
1161241,21,540,"2015-09-09 14:02:47",test,2,2,1,10238
1161241,22,540,"2015-09-09 14:02:47",test,1,1,1,10971
1161241,23,540,"2015-09-09 14:02:47",test,2,1,0,22079
1161241,24,540,"2015-09-09 14:02:47",test,5,4,0,18615
1161241,25,540,"2015-09-09 14:02:47",testsmall,3,3,1,19035
1161241,26,540,"2015-09-09 14:02:47",test,1,1,1,4120
1161241,27,540,"2015-09-09 14:02:47",testbig,3,3,1,15794
1161241,28,540,"2015-09-09 14:02:47",test,4,4,1,10254
1161241,29,540,"2015-09-09 14:02:47",test,3,3,1,10739
1161241,30,540,"2015-09-09 14:02:47",testbig,5,1,0,7367
1161241,31,540,"2015-09-09 14:02:47",testbig,4,4,1,3810
1161241,32,540,"2015-09-09 14:02:47",test,5,3,0,2128
1161241,33,540,"2015-09-09 14:02:47",test,4,5,0,2236
1161241,34,540,"2015-09-09 14:02:47",test,1,2,0,2137
1161262,1,207,"2015-09-09 14:08:41",prac_test,3,3,1,4350
1161262,2,207,"2015-09-09 14:08:41",prac_test,1,1,1,6298
1161262,3,207,"2015-09-09 14:08:41",inst2,0,0,1,11366
1161262,4,207,"2015-09-09 14:08:41",testbig,2,2,1,13246
1161262,5,207,"2015-09-09 14:08:41",test,1,1,1,31584
1161262,6,207,"2015-09-09 14:08:41",test,4,4,1,20590
1161262,7,207,"2015-09-09 14:08:41",test,3,3,1,7588
1161262,8,207,"2015-09-09 14:08:41",test,1,1,1,5462
1161262,9,207,"2015-09-09 14:08:41",test,3,2,0,12283
1161262,10,207,"2015-09-09 14:08:41",test,3,1,0,9958
1161262,11,207,"2015-09-09 14:08:41",test,4,5,0,9097
1161257,1,278,"2015-09-09 14:07:35",prac_test,3,3,1,19732
1161257,2,278,"2015-09-09 14:07:35",prac_test,1,1,1,12081
1161257,3,278,"2015-09-09 14:07:35",inst2,0,0,1,2695
1161257,4,278,"2015-09-09 14:07:35",testbig,2,2,1,9787
1161257,5,278,"2015-09-09 14:07:35",test,1,1,1,11381
1161257,6,278,"2015-09-09 14:07:35",test,4,4,1,6449
1161257,7,278,"2015-09-09 14:07:35",test,3,3,1,19585
1161257,8,278,"2015-09-09 14:07:35",test,1,1,1,11718
1161257,9,278,"2015-09-09 14:07:35",test,3,3,1,17591
1161257,10,278,"2015-09-09 14:07:35",test,3,3,1,21109
1161257,11,278,"2015-09-09 14:07:35",test,4,5,0,7913
1161257,12,278,"2015-09-09 14:07:35",test,4,4,1,9226
1161257,13,278,"2015-09-09 14:07:35",test,1,3,0,6574
1161257,14,278,"2015-09-09 14:07:35",test,5,1,0,12643
1161257,15,278,"2015-09-09 14:07:35",test,1,1,1,7508
1161257,16,278,"2015-09-09 14:07:35",test,2,5,0,10287
1161257,17,278,"2015-09-09 14:07:35",test,3,3,1,4798
1161257,18,278,"2015-09-09 14:07:35",test,2,5,0,6450
1161257,19,278,"2015-09-09 14:07:35",test,5,1,0,4016
1161257,20,278,"2015-09-09 14:07:35",test,4,4,1,15621
1161257,21,278,"2015-09-09 14:07:35",test,2,4,0,7714
1161257,22,278,"2015-09-09 14:07:35",test,1,2,0,15107
1161257,23,278,"2015-09-09 14:07:35",test,2,1,0,7211
1161242,1,405,"2015-09-09 14:05:41",prac_test,3,3,1,5859
1161242,2,405,"2015-09-09 14:05:41",prac_test,1,1,1,4068
1161242,3,405,"2015-09-09 14:05:41",inst2,0,0,1,2225
1161242,4,405,"2015-09-09 14:05:41",testbig,2,2,1,13344
1161242,5,405,"2015-09-09 14:05:41",test,1,2,0,28080
1161242,6,405,"2015-09-09 14:05:41",test,4,4,1,9951
1161242,7,405,"2015-09-09 14:05:41",test,3,3,1,6980
1161242,8,405,"2015-09-09 14:05:41",test,1,1,1,3951
1161242,9,405,"2015-09-09 14:05:41",test,3,3,1,8833
1161242,10,405,"2015-09-09 14:05:41",test,3,3,1,21519
1161242,11,405,"2015-09-09 14:05:41",test,4,5,0,10265
1161242,12,405,"2015-09-09 14:05:41",test,4,4,1,13430
1161242,13,405,"2015-09-09 14:05:41",test,1,1,1,18768
1161242,14,405,"2015-09-09 14:05:41",test,5,1,0,4341
1161242,15,405,"2015-09-09 14:05:41",test,1,1,1,13141
1161242,16,405,"2015-09-09 14:05:41",test,2,1,0,24107
1161242,17,405,"2015-09-09 14:05:41",test,3,3,1,8288
1161242,18,405,"2015-09-09 14:05:41",test,2,3,0,28555
1161242,19,405,"2015-09-09 14:05:41",test,5,5,1,17055
1161242,20,405,"2015-09-09 14:05:41",test,4,4,1,29254
1161242,21,405,"2015-09-09 14:05:41",test,2,5,0,13417
1161242,22,405,"2015-09-09 14:05:41",test,1,3,0,28583
1161242,23,405,"2015-09-09 14:05:41",test,2,3,0,503
1161263,1,380,"2015-09-09 14:06:15",prac_test,3,3,1,6314
1161263,2,380,"2015-09-09 14:06:15",prac_test,1,1,1,2890
1161263,3,380,"2015-09-09 14:06:15",inst2,0,0,1,2885
1161263,4,380,"2015-09-09 14:06:15",testbig,2,2,1,4922
1161263,5,380,"2015-09-09 14:06:15",test,1,1,1,17508
1161263,6,380,"2015-09-09 14:06:15",test,4,2,0,7968
1161263,7,380,"2015-09-09 14:06:15",test,3,3,1,5495
1161263,8,380,"2015-09-09 14:06:15",test,1,1,1,4321
1161263,9,380,"2015-09-09 14:06:15",test,3,3,1,4328
1161263,10,380,"2015-09-09 14:06:15",test,3,1,0,7944
1161263,11,380,"2015-09-09 14:06:15",test,4,5,0,7254
1161263,12,380,"2015-09-09 14:06:15",test,4,4,1,14184
1161263,13,380,"2015-09-09 14:06:15",test,1,1,1,5373
1161263,14,380,"2015-09-09 14:06:15",test,5,2,0,33372
1161263,15,380,"2015-09-09 14:06:15",test,1,4,0,12899
1161263,16,380,"2015-09-09 14:06:15",test,2,1,0,16431
1161265,1,369,"2015-09-09 14:08:14",prac_test,3,3,1,7233
1161265,2,369,"2015-09-09 14:08:14",prac_test,1,1,1,1004
1161265,3,369,"2015-09-09 14:08:14",inst2,0,0,1,12216
1161265,4,369,"2015-09-09 14:08:14",testbig,2,2,1,3981
1161265,5,369,"2015-09-09 14:08:14",test,1,1,1,12952
1161265,6,369,"2015-09-09 14:08:14",test,4,4,1,6056
1161265,7,369,"2015-09-09 14:08:14",test,3,3,1,6101
1161265,8,369,"2015-09-09 14:08:14",test,1,1,1,5316
1161265,9,369,"2015-09-09 14:08:14",test,3,3,1,9125
1161265,10,369,"2015-09-09 14:08:14",test,3,1,0,17447
1161265,11,369,"2015-09-09 14:08:14",test,4,5,0,10377
1161265,12,369,"2015-09-09 14:08:14",test,4,4,1,5479
1161265,13,369,"2015-09-09 14:08:14",test,1,1,1,4562
1161265,14,369,"2015-09-09 14:08:14",test,5,5,1,11142
1161265,15,369,"2015-09-09 14:08:14",test,1,1,1,15918
1161265,16,369,"2015-09-09 14:08:14",test,2,5,0,20908
1161265,17,369,"2015-09-09 14:08:14",test,3,5,0,5435
1161265,18,369,"2015-09-09 14:08:14",test,2,2,1,7151
1161265,19,369,"2015-09-09 14:08:14",test,5,5,1,8617
1161265,20,369,"2015-09-09 14:08:14",test,4,4,1,25184
1161265,21,369,"2015-09-09 14:08:14",test,2,4,0,8397
1161265,22,369,"2015-09-09 14:08:14",test,1,1,1,12549
1161265,23,369,"2015-09-09 14:08:14",test,2,1,0,4502
1161265,24,369,"2015-09-09 14:08:14",test,5,1,0,12889
1161265,25,369,"2015-09-09 14:08:14",testsmall,3,5,0,22795
1161252,1,429,"2015-09-09 14:07:22",prac_test,3,3,1,7707
1161252,2,429,"2015-09-09 14:07:22",prac_test,1,1,1,3270
1161252,3,429,"2015-09-09 14:07:22",inst2,0,0,1,4934
1161252,4,429,"2015-09-09 14:07:22",testbig,2,2,1,6902
1161252,5,429,"2015-09-09 14:07:22",test,1,1,1,12827
1161252,6,429,"2015-09-09 14:07:22",test,4,4,1,6715
1161252,7,429,"2015-09-09 14:07:22",test,3,3,1,5179
1161252,8,429,"2015-09-09 14:07:22",test,1,1,1,5074
1161252,9,429,"2015-09-09 14:07:22",test,3,3,1,5764
1161252,10,429,"2015-09-09 14:07:22",test,3,1,0,6572
1161252,11,429,"2015-09-09 14:07:22",test,4,5,0,6939
1161252,12,429,"2015-09-09 14:07:22",test,4,4,1,6512
1161252,13,429,"2015-09-09 14:07:22",test,1,1,1,6089
1161252,14,429,"2015-09-09 14:07:22",test,5,5,1,13399
1161252,15,429,"2015-09-09 14:07:22",test,1,1,1,13423
1161252,16,429,"2015-09-09 14:07:22",test,2,2,1,9988
1161252,17,429,"2015-09-09 14:07:22",test,3,3,1,6780
1161252,18,429,"2015-09-09 14:07:22",test,2,2,1,11296
1161252,19,429,"2015-09-09 14:07:22",test,5,5,1,6107
1161252,20,429,"2015-09-09 14:07:22",test,4,4,1,14179
1161252,21,429,"2015-09-09 14:07:22",test,2,2,1,6479
1161252,22,429,"2015-09-09 14:07:22",test,1,1,1,26957
1161252,23,429,"2015-09-09 14:07:22",test,2,2,1,18397
1161252,24,429,"2015-09-09 14:07:22",test,5,5,1,11513
1161252,25,429,"2015-09-09 14:07:22",testsmall,3,4,0,15890
1161252,26,429,"2015-09-09 14:07:22",test,1,1,1,14502
1161252,27,429,"2015-09-09 14:07:22",testbig,3,3,1,9258
1161252,28,429,"2015-09-09 14:07:22",test,4,1,0,10755
1161252,29,429,"2015-09-09 14:07:22",test,3,2,0,17830
1161252,30,429,"2015-09-09 14:07:22",testbig,5,2,0,25306
1161254,1,384,"2015-09-09 14:08:51",prac_test,3,3,1,11009
1161254,2,384,"2015-09-09 14:08:51",prac_test,1,1,1,6712
1161254,3,384,"2015-09-09 14:08:51",inst2,0,0,1,11337
1161254,4,384,"2015-09-09 14:08:51",testbig,2,2,1,3906
1161254,5,384,"2015-09-09 14:08:51",test,1,1,1,9551
1161254,6,384,"2015-09-09 14:08:51",test,4,4,1,7572
1161254,7,384,"2015-09-09 14:08:51",test,3,3,1,6007
1161254,8,384,"2015-09-09 14:08:51",test,1,1,1,2965
1161254,9,384,"2015-09-09 14:08:51",test,3,3,1,3516
1161254,10,384,"2015-09-09 14:08:51",test,3,3,1,4900
1161254,11,384,"2015-09-09 14:08:51",test,4,5,0,6777
1161254,12,384,"2015-09-09 14:08:51",test,4,4,1,6494
1161254,13,384,"2015-09-09 14:08:51",test,1,1,1,7164
1161254,14,384,"2015-09-09 14:08:51",test,5,5,1,6696
1161254,15,384,"2015-09-09 14:08:51",test,1,1,1,8568
1161254,16,384,"2015-09-09 14:08:51",test,2,2,1,8821
1161254,17,384,"2015-09-09 14:08:51",test,3,3,1,4216
1161254,18,384,"2015-09-09 14:08:51",test,2,5,0,4639
1161254,19,384,"2015-09-09 14:08:51",test,5,5,1,15136
1161254,20,384,"2015-09-09 14:08:51",test,4,4,1,9942
1161254,21,384,"2015-09-09 14:08:51",test,2,2,1,13124
1161254,22,384,"2015-09-09 14:08:51",test,1,3,0,6757
1161254,23,384,"2015-09-09 14:08:51",test,2,1,0,7153
1161254,24,384,"2015-09-09 14:08:51",test,5,5,1,7837
1161254,25,384,"2015-09-09 14:08:51",testsmall,3,5,0,18755
1161254,26,384,"2015-09-09 14:08:51",test,1,1,1,4171
1161254,27,384,"2015-09-09 14:08:51",testbig,3,4,0,4562
1161254,28,384,"2015-09-09 14:08:51",test,4,1,0,13171
1161254,29,384,"2015-09-09 14:08:51",test,3,3,1,9024
1161254,30,384,"2015-09-09 14:08:51",testbig,5,2,0,24668
1161254,31,384,"2015-09-09 14:08:51",testbig,4,1,0,7673
1161254,32,384,"2015-09-09 14:08:51",test,5,4,0,9003
1161256,1,508,"2015-09-09 14:06:48",prac_test,3,3,1,8967
1161256,2,508,"2015-09-09 14:06:48",prac_test,1,1,1,7071
1161256,3,508,"2015-09-09 14:06:48",inst2,0,0,1,6425
1161256,4,508,"2015-09-09 14:06:48",testbig,2,2,1,7274
1161256,5,508,"2015-09-09 14:06:48",test,1,1,1,7865
1161256,6,508,"2015-09-09 14:06:48",test,4,4,1,7555
1161256,7,508,"2015-09-09 14:06:48",test,3,3,1,7168
1161256,8,508,"2015-09-09 14:06:48",test,1,1,1,9193
1161256,9,508,"2015-09-09 14:06:48",test,3,3,1,24997
1161256,10,508,"2015-09-09 14:06:48",test,3,3,1,16935
1161256,11,508,"2015-09-09 14:06:48",test,4,5,0,14387
1161256,12,508,"2015-09-09 14:06:48",test,4,4,1,8600
1161256,13,508,"2015-09-09 14:06:48",test,1,1,1,7104
1161256,14,508,"2015-09-09 14:06:48",test,5,5,1,17523
1161256,15,508,"2015-09-09 14:06:48",test,1,4,0,13406
1161256,16,508,"2015-09-09 14:06:48",test,2,2,1,13810
1161256,17,508,"2015-09-09 14:06:48",test,3,3,1,6104
1161256,18,508,"2015-09-09 14:06:48",test,2,2,1,6962
1161256,19,508,"2015-09-09 14:06:48",test,5,5,1,8711
1161256,20,508,"2015-09-09 14:06:48",test,4,4,1,13789
1161256,21,508,"2015-09-09 14:06:48",test,2,4,0,18620
1161256,22,508,"2015-09-09 14:06:48",test,1,5,0,15120
1161256,23,508,"2015-09-09 14:06:48",test,2,2,1,27991
1161256,24,508,"2015-09-09 14:06:48",test,5,3,0,17774
1161256,25,508,"2015-09-09 14:06:48",testsmall,3,1,0,12500
1161256,26,508,"2015-09-09 14:06:48",test,1,1,1,41017
1161256,27,508,"2015-09-09 14:06:48",testbig,3,1,0,22705
1161256,28,508,"2015-09-09 14:06:48",test,4,4,1,7035
1161256,29,508,"2015-09-09 14:06:48",test,3,5,0,10568
1161256,30,508,"2015-09-09 14:06:48",testbig,5,5,1,25476
1161256,31,508,"2015-09-09 14:06:48",testbig,4,2,0,12863
1161256,32,508,"2015-09-09 14:06:48",test,5,4,0,14045
1161256,33,508,"2015-09-09 14:06:48",test,4,5,0,12783
1161278,1,198,"2015-09-09 14:11:58",prac_test,3,3,1,15527
1161278,2,198,"2015-09-09 14:11:58",prac_test,1,1,1,14363
1161278,3,198,"2015-09-09 14:11:58",inst2,0,0,1,6666
1161278,4,198,"2015-09-09 14:11:58",testbig,2,1,0,8958
1161278,5,198,"2015-09-09 14:11:58",test,1,1,1,17411
1161278,6,198,"2015-09-09 14:11:58",test,4,4,1,19765
1161278,7,198,"2015-09-09 14:11:58",test,3,3,1,12402
1161278,8,198,"2015-09-09 14:11:58",test,1,1,1,8176
1161278,9,198,"2015-09-09 14:11:58",test,3,3,1,10716
1161278,10,198,"2015-09-09 14:11:58",test,3,1,0,4020
1161278,11,198,"2015-09-09 14:11:58",test,4,5,0,8275
1161278,12,198,"2015-09-09 14:11:58",test,4,4,1,11184
1161278,13,198,"2015-09-09 14:11:58",test,1,3,0,17132
1161278,14,198,"2015-09-09 14:11:58",test,5,1,0,6555
1161278,15,198,"2015-09-09 14:11:58",test,1,4,0,12437
1161267,1,568,"2015-09-09 14:06:28",prac_test,3,3,1,8449
1161267,2,568,"2015-09-09 14:06:28",prac_test,1,1,1,5314
1161267,3,568,"2015-09-09 14:06:28",inst2,0,0,1,2586
1161267,4,568,"2015-09-09 14:06:28",testbig,2,2,1,12792
1161267,5,568,"2015-09-09 14:06:28",test,1,1,1,33671
1161267,6,568,"2015-09-09 14:06:28",test,4,4,1,4138
1161267,7,568,"2015-09-09 14:06:28",test,3,3,1,5401
1161267,8,568,"2015-09-09 14:06:28",test,1,1,1,3810
1161267,9,568,"2015-09-09 14:06:28",test,3,4,0,5807
1161267,10,568,"2015-09-09 14:06:28",test,3,5,0,4921
1161267,11,568,"2015-09-09 14:06:28",test,4,4,1,9865
1161267,12,568,"2015-09-09 14:06:28",test,4,4,1,7040
1161267,13,568,"2015-09-09 14:06:28",test,1,1,1,5059
1161267,14,568,"2015-09-09 14:06:28",test,5,5,1,8563
1161267,15,568,"2015-09-09 14:06:28",test,1,4,0,13857
1161267,16,568,"2015-09-09 14:06:28",test,2,1,0,12626
1161267,17,568,"2015-09-09 14:06:28",test,3,3,1,9471
1161267,18,568,"2015-09-09 14:06:28",test,2,2,1,6824
1161267,19,568,"2015-09-09 14:06:28",test,5,5,1,8867
1161267,20,568,"2015-09-09 14:06:28",test,4,4,1,14996
1161267,21,568,"2015-09-09 14:06:28",test,2,2,1,9257
1161267,22,568,"2015-09-09 14:06:28",test,1,5,0,14330
1161267,23,568,"2015-09-09 14:06:28",test,2,2,1,12781
1161267,24,568,"2015-09-09 14:06:28",test,5,5,1,8350
1161267,25,568,"2015-09-09 14:06:28",testsmall,3,2,0,12953
1161267,26,568,"2015-09-09 14:06:28",test,1,1,1,9379
1161267,27,568,"2015-09-09 14:06:28",testbig,3,3,1,19809
1161267,28,568,"2015-09-09 14:06:28",test,4,4,1,7541
1161267,29,568,"2015-09-09 14:06:28",test,3,5,0,14262
1161267,30,568,"2015-09-09 14:06:28",testbig,5,2,0,13862
1161267,31,568,"2015-09-09 14:06:28",testbig,4,1,0,17623
1161250,1,758,"2015-09-09 14:04:52",prac_test,3,3,1,3316
1161250,2,758,"2015-09-09 14:04:52",prac_test,1,1,1,7245
1161250,3,758,"2015-09-09 14:04:52",inst2,0,0,1,2719
1161250,4,758,"2015-09-09 14:04:52",testbig,2,2,1,10443
1161250,5,758,"2015-09-09 14:04:52",test,1,1,1,46232
1161250,6,758,"2015-09-09 14:04:52",test,4,4,1,9021
1161250,7,758,"2015-09-09 14:04:52",test,3,3,1,19817
1161250,8,758,"2015-09-09 14:04:52",test,1,1,1,11954
1161250,9,758,"2015-09-09 14:04:52",test,3,3,1,24963
1161250,10,758,"2015-09-09 14:04:52",test,3,3,1,21675
1161250,11,758,"2015-09-09 14:04:52",test,4,5,0,26025
1161250,12,758,"2015-09-09 14:04:52",test,4,4,1,8145
1161250,13,758,"2015-09-09 14:04:52",test,1,1,1,10488
1161250,14,758,"2015-09-09 14:04:52",test,5,5,1,19008
1161250,15,758,"2015-09-09 14:04:52",test,1,1,1,13669
1161250,16,758,"2015-09-09 14:04:52",test,2,2,1,10815
1161250,17,758,"2015-09-09 14:04:52",test,3,3,1,8353
1161250,18,758,"2015-09-09 14:04:52",test,2,2,1,7180
1161250,19,758,"2015-09-09 14:04:52",test,5,5,1,9645
1161250,20,758,"2015-09-09 14:04:52",test,4,4,1,12187
1161250,21,758,"2015-09-09 14:04:52",test,2,5,0,43117
1161250,22,758,"2015-09-09 14:04:52",test,1,3,0,20125
1161250,23,758,"2015-09-09 14:04:52",test,2,2,1,32234
1161250,24,758,"2015-09-09 14:04:52",test,5,3,0,11424
1161250,25,758,"2015-09-09 14:04:52",testsmall,3,1,0,37372
1161250,26,758,"2015-09-09 14:04:52",test,1,1,1,16568
1161250,27,758,"2015-09-09 14:04:52",testbig,3,3,1,16930
1161250,28,758,"2015-09-09 14:04:52",test,4,1,0,9195
1161250,29,758,"2015-09-09 14:04:52",test,3,5,0,13844
1161250,30,758,"2015-09-09 14:04:52",testbig,5,1,0,14356
1161253,1,653,"2015-09-09 14:08:59",prac_test,3,3,1,7415
1161253,2,653,"2015-09-09 14:08:59",prac_test,1,1,1,6918
1161253,3,653,"2015-09-09 14:08:59",inst2,0,0,1,1912
1161253,4,653,"2015-09-09 14:08:59",testbig,2,2,1,7554
1161253,5,653,"2015-09-09 14:08:59",test,1,2,0,33157
1161253,6,653,"2015-09-09 14:08:59",test,4,4,1,5850
1161253,7,653,"2015-09-09 14:08:59",test,3,3,1,5667
1161253,8,653,"2015-09-09 14:08:59",test,1,1,1,6903
1161253,9,653,"2015-09-09 14:08:59",test,3,3,1,14717
1161253,10,653,"2015-09-09 14:08:59",test,3,3,1,53951
1161253,11,653,"2015-09-09 14:08:59",test,4,5,0,32433
1161253,12,653,"2015-09-09 14:08:59",test,4,4,1,14563
1161253,13,653,"2015-09-09 14:08:59",test,1,1,1,5683
1161253,14,653,"2015-09-09 14:08:59",test,5,2,0,19808
1161253,15,653,"2015-09-09 14:08:59",test,1,4,0,6801
1161253,16,653,"2015-09-09 14:08:59",test,2,2,1,11252
1161253,17,653,"2015-09-09 14:08:59",test,3,3,1,6224
1161253,18,653,"2015-09-09 14:08:59",test,2,4,0,23529
1161253,19,653,"2015-09-09 14:08:59",test,5,5,1,7941
1161253,20,653,"2015-09-09 14:08:59",test,4,3,0,32434
1161253,21,653,"2015-09-09 14:08:59",test,2,2,1,20435
1161253,22,653,"2015-09-09 14:08:59",test,1,2,0,858
1161253,23,653,"2015-09-09 14:08:59",test,2,1,0,25025
1161253,24,653,"2015-09-09 14:08:59",test,5,5,1,20707
1161253,25,653,"2015-09-09 14:08:59",testsmall,3,5,0,59128
1161253,26,653,"2015-09-09 14:08:59",test,1,1,1,25521
1161253,27,653,"2015-09-09 14:08:59",testbig,3,4,0,20675
1161253,28,653,"2015-09-09 14:08:59",test,4,1,0,6580
1161253,29,653,"2015-09-09 14:08:59",test,3,3,1,13729
1161253,30,653,"2015-09-09 14:08:59",testbig,5,2,0,26318
1161253,31,653,"2015-09-09 14:08:59",testbig,4,2,0,12977
