sitting_id,trial,duration,start_time,type,correctResponse,response,correct,rt
1153937,1,25,"2015-09-02 13:01:06",prac_test,3,3,1,1158
1153937,2,25,"2015-09-02 13:01:06",prac_test,1,1,1,1619
1153937,3,25,"2015-09-02 13:01:06",inst2,0,0,1,880
1153937,4,25,"2015-09-02 13:01:06",testbig,2,2,1,794
1153937,5,25,"2015-09-02 13:01:06",test,1,1,1,1292
1153937,6,25,"2015-09-02 13:01:06",test,4,4,1,1845
1153937,7,25,"2015-09-02 13:01:06",test,3,3,1,717
1153937,8,25,"2015-09-02 13:01:06",test,1,1,1,637
1153937,9,25,"2015-09-02 13:01:06",test,3,3,1,1125
1153937,10,25,"2015-09-02 13:01:06",test,3,3,1,284
1153937,11,25,"2015-09-02 13:01:06",test,4,3,0,140
1154153,1,367,"2015-09-02 16:56:48",prac_test,3,3,1,2321
1154153,2,367,"2015-09-02 16:56:48",prac_test,1,1,1,1876
1154153,3,367,"2015-09-02 16:56:48",inst2,0,0,1,7097
1154153,4,367,"2015-09-02 16:56:48",testbig,2,2,1,2757
1154153,5,367,"2015-09-02 16:56:48",test,1,1,1,3294
1154153,6,367,"2015-09-02 16:56:48",test,4,4,1,4807
1154153,7,367,"2015-09-02 16:56:48",test,3,3,1,1692
1154153,8,367,"2015-09-02 16:56:48",test,1,1,1,2115
1154153,9,367,"2015-09-02 16:56:48",test,3,3,1,2101
1154153,10,367,"2015-09-02 16:56:48",test,3,3,1,8250
1154153,11,367,"2015-09-02 16:56:48",test,4,4,1,4507
1154153,12,367,"2015-09-02 16:56:48",test,4,4,1,3725
1154153,13,367,"2015-09-02 16:56:48",test,1,1,1,3146
1154153,14,367,"2015-09-02 16:56:48",test,5,5,1,4271
1154153,15,367,"2015-09-02 16:56:48",test,1,1,1,3936
1154153,16,367,"2015-09-02 16:56:48",test,2,2,1,4032
1154153,17,367,"2015-09-02 16:56:48",test,3,3,1,2687
1154153,18,367,"2015-09-02 16:56:48",test,2,2,1,3108
1154153,19,367,"2015-09-02 16:56:48",test,5,5,1,4532
1154153,20,367,"2015-09-02 16:56:48",test,4,4,1,5528
1154153,21,367,"2015-09-02 16:56:48",test,2,2,1,11358
1154153,22,367,"2015-09-02 16:56:48",test,1,1,1,3894
1154153,23,367,"2015-09-02 16:56:48",test,2,2,1,6699
1154153,24,367,"2015-09-02 16:56:48",test,5,5,1,15119
1154153,25,367,"2015-09-02 16:56:48",testsmall,3,3,1,7609
1154153,26,367,"2015-09-02 16:56:48",test,1,1,1,3327
1154153,27,367,"2015-09-02 16:56:48",testbig,3,3,1,5797
1154153,28,367,"2015-09-02 16:56:48",test,4,4,1,9119
1154153,29,367,"2015-09-02 16:56:48",test,3,3,1,14736
1154153,30,367,"2015-09-02 16:56:48",testbig,5,1,0,15805
1154153,31,367,"2015-09-02 16:56:48",testbig,4,4,1,17892
1154153,32,367,"2015-09-02 16:56:48",test,5,5,1,5395
1154153,33,367,"2015-09-02 16:56:48",test,4,3,0,14072
1154153,34,367,"2015-09-02 16:56:48",test,1,1,1,40278
1154153,35,367,"2015-09-02 16:56:48",testsmall,5,5,1,13335
1154153,36,367,"2015-09-02 16:56:48",test,3,2,0,20101
1154153,37,367,"2015-09-02 16:56:48",test,3,3,1,6858
1154153,38,367,"2015-09-02 16:56:48",testbig,1,4,0,6435
1154167,1,61,"2015-09-02 17:28:05",prac_test,3,3,1,1696
1154167,2,61,"2015-09-02 17:28:05",prac_test,1,1,1,2038
1154167,3,61,"2015-09-02 17:28:05",inst2,0,0,1,912
1154167,4,61,"2015-09-02 17:28:05",testbig,2,2,1,1182
1154167,5,61,"2015-09-02 17:28:05",test,1,4,0,2280
1154167,6,61,"2015-09-02 17:28:05",test,4,4,1,434
1154167,7,61,"2015-09-02 17:28:05",test,3,4,0,397
1154167,8,61,"2015-09-02 17:28:05",test,1,4,0,401
1154167,9,61,"2015-09-02 17:28:05",test,3,4,0,315
1154434,1,214,"2015-09-02 23:41:48",prac_test,3,3,1,1546
1154434,2,214,"2015-09-02 23:41:48",prac_test,1,1,1,1030
1154434,3,214,"2015-09-02 23:41:48",inst2,0,0,1,1328
1154434,4,214,"2015-09-02 23:41:48",testbig,2,2,1,1183
1154434,5,214,"2015-09-02 23:41:48",test,1,1,1,2375
1154434,6,214,"2015-09-02 23:41:48",test,4,4,1,1983
1154434,7,214,"2015-09-02 23:41:48",test,3,3,1,1985
1154434,8,214,"2015-09-02 23:41:48",test,1,1,1,982
1155345,1,12,"2015-09-03 17:07:06",prac_test,3,3,1,1281
1155345,2,12,"2015-09-03 17:07:06",prac_test,1,1,1,570
1155345,3,12,"2015-09-03 17:07:06",inst2,0,0,1,816
1155345,4,12,"2015-09-03 17:07:06",testbig,2,2,1,562
1155345,5,12,"2015-09-03 17:07:06",test,1,2,0,229
1155345,6,12,"2015-09-03 17:07:06",test,4,2,0,142
1155345,7,12,"2015-09-03 17:07:06",test,3,2,0,86
1156277,1,51,"2015-09-04 15:07:54",prac_test,3,3,1,6519
1156277,2,51,"2015-09-04 15:07:54",prac_test,1,1,1,6964
1156277,3,51,"2015-09-04 15:07:54",inst2,0,0,1,10706
1156277,4,51,"2015-09-04 15:07:54",testbig,2,2,1,3889
1156277,5,51,"2015-09-04 15:07:54",test,1,2,0,633
1156277,6,51,"2015-09-04 15:07:54",test,4,4,1,1174
1156277,7,51,"2015-09-04 15:07:54",test,3,2,0,624
1156277,8,51,"2015-09-04 15:07:54",test,1,1,1,1093
1156277,9,51,"2015-09-04 15:07:54",test,3,5,0,702
1156277,10,51,"2015-09-04 15:07:54",test,3,3,1,464
1156277,11,51,"2015-09-04 15:07:54",test,4,5,0,388
1156277,12,51,"2015-09-04 15:07:54",test,4,5,0,296
1156277,13,51,"2015-09-04 15:07:54",test,1,5,0,894
1156351,1,114,"2015-09-04 16:17:19",prac_test,3,3,1,847
1156351,2,114,"2015-09-04 16:17:19",prac_test,1,1,1,5043
1156351,3,114,"2015-09-04 16:17:19",inst2,0,0,1,22184
1156351,4,114,"2015-09-04 16:17:19",testbig,2,4,0,2988
1156351,5,114,"2015-09-04 16:17:19",test,1,3,0,3182
1156351,6,114,"2015-09-04 16:17:19",test,4,1,0,576
1156353,1,26,"2015-09-04 16:19:29",prac_test,3,3,1,968
1156353,2,26,"2015-09-04 16:19:29",prac_test,1,1,1,804
1156353,3,26,"2015-09-04 16:19:29",inst2,0,0,1,582
1156353,4,26,"2015-09-04 16:19:29",testbig,2,2,1,1145
1156353,5,26,"2015-09-04 16:19:29",test,1,1,1,1694
1156353,6,26,"2015-09-04 16:19:29",test,4,2,0,1071
1156353,7,26,"2015-09-04 16:19:29",test,3,3,1,1323
1156353,8,26,"2015-09-04 16:19:29",test,1,1,1,1066
1156353,9,26,"2015-09-04 16:19:29",test,3,2,0,1083
1156353,10,26,"2015-09-04 16:19:29",test,3,1,0,1707
1156353,11,26,"2015-09-04 16:19:29",test,4,1,0,2001
1157007,1,104,"2015-09-05 12:23:27",prac_test,3,3,1,16687
1157007,2,104,"2015-09-05 12:23:27",prac_test,1,1,1,913
1157007,3,104,"2015-09-05 12:23:27",inst2,0,0,1,728
1157007,4,104,"2015-09-05 12:23:27",testbig,2,2,1,1217
1157007,5,104,"2015-09-05 12:23:27",test,1,1,1,1324
1157007,6,104,"2015-09-05 12:23:27",test,4,2,0,1362
1157007,7,104,"2015-09-05 12:23:27",test,3,2,0,315
1157007,8,104,"2015-09-05 12:23:27",test,1,2,0,252
1157010,1,246,"2015-09-05 12:25:40",prac_test,3,3,1,1605
1157010,2,246,"2015-09-05 12:25:40",prac_test,1,1,1,770
1157010,3,246,"2015-09-05 12:25:40",inst2,0,0,1,688
1157010,4,246,"2015-09-05 12:25:40",testbig,2,2,1,985
1157010,5,246,"2015-09-05 12:25:40",test,1,1,1,1458
1157010,6,246,"2015-09-05 12:25:40",test,4,4,1,1747
1157010,7,246,"2015-09-05 12:25:40",test,3,3,1,1125
1157010,8,246,"2015-09-05 12:25:40",test,1,1,1,715
1157010,9,246,"2015-09-05 12:25:40",test,3,3,1,1411
1157010,10,246,"2015-09-05 12:25:40",test,3,3,1,3937
1157010,11,246,"2015-09-05 12:25:40",test,4,4,1,2588
1157010,12,246,"2015-09-05 12:25:40",test,4,4,1,2202
1157010,13,246,"2015-09-05 12:25:40",test,1,1,1,7233
1157010,14,246,"2015-09-05 12:25:40",test,5,5,1,3018
1157010,15,246,"2015-09-05 12:25:40",test,1,1,1,3736
1157010,16,246,"2015-09-05 12:25:40",test,2,2,1,5879
1157010,17,246,"2015-09-05 12:25:40",test,3,3,1,1612
1157010,18,246,"2015-09-05 12:25:40",test,2,2,1,2163
1157010,19,246,"2015-09-05 12:25:40",test,5,5,1,2282
1157010,20,246,"2015-09-05 12:25:40",test,4,4,1,7671
1157010,21,246,"2015-09-05 12:25:40",test,2,2,1,1324
1157010,22,246,"2015-09-05 12:25:40",test,1,1,1,2578
1157010,23,246,"2015-09-05 12:25:40",test,2,2,1,4701
1157010,24,246,"2015-09-05 12:25:40",test,5,5,1,3586
1157010,25,246,"2015-09-05 12:25:40",testsmall,3,3,1,5149
1157010,26,246,"2015-09-05 12:25:40",test,1,1,1,5512
1157010,27,246,"2015-09-05 12:25:40",testbig,3,3,1,7988
1157010,28,246,"2015-09-05 12:25:40",test,4,3,0,1460
1157010,29,246,"2015-09-05 12:25:40",test,3,3,1,3980
1157010,30,246,"2015-09-05 12:25:40",testbig,5,5,1,16612
1157010,31,246,"2015-09-05 12:25:40",testbig,4,4,1,4163
1157010,32,246,"2015-09-05 12:25:40",test,5,4,0,24296
1157010,33,246,"2015-09-05 12:25:40",test,4,3,0,4754
1157010,34,246,"2015-09-05 12:25:40",test,1,1,1,7485
1157010,35,246,"2015-09-05 12:25:40",testsmall,5,5,1,7271
1157010,36,246,"2015-09-05 12:25:40",test,3,3,1,20154
1157010,37,246,"2015-09-05 12:25:40",test,3,3,1,18293
1157010,38,246,"2015-09-05 12:25:40",testbig,1,1,1,21011
1158795,1,746,"2015-09-07 12:21:23",prac_test,3,3,1,5315
1158795,2,746,"2015-09-07 12:21:23",prac_test,1,1,1,2567
1158795,3,746,"2015-09-07 12:21:23",inst2,0,0,1,2230
1158795,4,746,"2015-09-07 12:21:23",testbig,2,2,1,2877
1158795,5,746,"2015-09-07 12:21:23",test,1,1,1,5640
1158795,6,746,"2015-09-07 12:21:23",test,4,4,1,2813
1158795,7,746,"2015-09-07 12:21:23",test,3,3,1,4486
1158795,8,746,"2015-09-07 12:21:23",test,1,1,1,3001
1158795,9,746,"2015-09-07 12:21:23",test,3,3,1,6460
1158795,10,746,"2015-09-07 12:21:23",test,3,3,1,6858
1158795,11,746,"2015-09-07 12:21:23",test,4,4,1,7424
1158795,12,746,"2015-09-07 12:21:23",test,4,4,1,7251
1158795,13,746,"2015-09-07 12:21:23",test,1,1,1,5008
1158795,14,746,"2015-09-07 12:21:23",test,5,5,1,5120
1158795,15,746,"2015-09-07 12:21:23",test,1,1,1,9857
1158795,16,746,"2015-09-07 12:21:23",test,2,2,1,7411
1158795,17,746,"2015-09-07 12:21:23",test,3,3,1,4591
1158795,18,746,"2015-09-07 12:21:23",test,2,2,1,5946
1158795,19,746,"2015-09-07 12:21:23",test,5,5,1,3869
1158795,20,746,"2015-09-07 12:21:23",test,4,4,1,13026
1158795,21,746,"2015-09-07 12:21:23",test,2,2,1,39855
1158795,22,746,"2015-09-07 12:21:23",test,1,1,1,13667
1158795,23,746,"2015-09-07 12:21:23",test,2,4,0,23270
1158795,24,746,"2015-09-07 12:21:23",test,5,3,0,20066
1158795,25,746,"2015-09-07 12:21:23",testsmall,3,3,1,24344
1158795,26,746,"2015-09-07 12:21:23",test,1,1,1,5146
1158795,27,746,"2015-09-07 12:21:23",testbig,3,3,1,19145
1158795,28,746,"2015-09-07 12:21:23",test,4,4,1,16791
1158795,29,746,"2015-09-07 12:21:23",test,3,3,1,44285
1158795,30,746,"2015-09-07 12:21:23",testbig,5,5,1,21422
1158795,31,746,"2015-09-07 12:21:23",testbig,4,4,1,131773
1158795,32,746,"2015-09-07 12:21:23",test,5,4,0,11133
1158795,33,746,"2015-09-07 12:21:23",test,4,4,1,42786
1158795,34,746,"2015-09-07 12:21:23",test,1,2,0,22318
1158795,35,746,"2015-09-07 12:21:23",testsmall,5,3,0,109114
1158795,36,746,"2015-09-07 12:21:23",test,3,5,0,50806
1159845,1,79,"2015-09-08 13:59:27",prac_test,3,3,1,3192
1159845,2,79,"2015-09-08 13:59:27",prac_test,1,1,1,6686
1159845,3,79,"2015-09-08 13:59:27",inst2,0,0,1,2680
1159845,4,79,"2015-09-08 13:59:27",testbig,2,2,1,5803
1159845,5,79,"2015-09-08 13:59:27",test,1,1,1,5725
1159845,6,79,"2015-09-08 13:59:27",test,4,1,0,3156
1159845,7,79,"2015-09-08 13:59:27",test,3,1,0,2171
1159845,8,79,"2015-09-08 13:59:27",test,1,1,1,2534
1159845,9,79,"2015-09-08 13:59:27",test,3,4,0,8428
1159845,10,79,"2015-09-08 13:59:27",test,3,1,0,9939
1159845,11,79,"2015-09-08 13:59:27",test,4,5,0,16051
1159844,1,115,"2015-09-08 13:59:31",prac_test,3,3,1,4887
1159844,2,115,"2015-09-08 13:59:31",prac_test,1,1,1,9131
1159844,3,115,"2015-09-08 13:59:31",inst2,0,0,1,39
1159844,4,115,"2015-09-08 13:59:31",testbig,2,2,1,18349
1159844,5,115,"2015-09-08 13:59:31",test,1,1,1,5785
1159844,6,115,"2015-09-08 13:59:31",test,4,4,1,6193
1159844,7,115,"2015-09-08 13:59:31",test,3,3,1,9630
1159844,8,115,"2015-09-08 13:59:31",test,1,1,1,7669
1159844,9,115,"2015-09-08 13:59:31",test,3,4,0,10627
1159844,10,115,"2015-09-08 13:59:31",test,3,1,0,6011
1159844,11,115,"2015-09-08 13:59:31",test,4,5,0,8244
1160706,1,69,"2015-09-09 09:35:57",prac_test,3,3,1,14764
1160706,2,69,"2015-09-09 09:35:57",prac_test,1,1,1,3751
1160706,3,69,"2015-09-09 09:35:57",inst2,0,0,1,1472
1160706,4,69,"2015-09-09 09:35:57",testbig,2,5,0,16065
1160706,5,69,"2015-09-09 09:35:57",test,1,4,0,7407
1160706,6,69,"2015-09-09 09:35:57",test,4,4,1,1994
1160706,7,69,"2015-09-09 09:35:57",test,3,4,0,4300
1160706,8,69,"2015-09-09 09:35:57",test,1,4,0,1566
1160706,9,69,"2015-09-09 09:35:57",test,3,4,0,287
1160712,1,53,"2015-09-09 09:37:13",prac_test,3,3,1,7317
1160712,2,53,"2015-09-09 09:37:13",prac_test,1,1,1,3937
1160712,3,53,"2015-09-09 09:37:13",inst2,0,0,1,1473
1160712,4,53,"2015-09-09 09:37:13",testbig,2,3,0,4731
1160712,5,53,"2015-09-09 09:37:13",test,1,3,0,5995
1160712,6,53,"2015-09-09 09:37:13",test,4,5,0,9679
1160716,1,82,"2015-09-09 09:38:25",prac_test,3,3,1,5843
1160716,2,82,"2015-09-09 09:38:25",prac_test,1,1,1,3390
1160716,3,82,"2015-09-09 09:38:25",inst2,0,0,1,5332
1160716,4,82,"2015-09-09 09:38:25",testbig,2,2,1,3592
1160716,5,82,"2015-09-09 09:38:25",test,1,1,1,4123
1160716,6,82,"2015-09-09 09:38:25",test,4,2,0,7659
1160716,7,82,"2015-09-09 09:38:25",test,3,3,1,6491
1160716,8,82,"2015-09-09 09:38:25",test,1,1,1,3439
1160716,9,82,"2015-09-09 09:38:25",test,3,1,0,4169
1160716,10,82,"2015-09-09 09:38:25",test,3,1,0,4795
1160716,11,82,"2015-09-09 09:38:25",test,4,5,0,19374
1160828,1,378,"2015-09-09 10:10:55",prac_test,3,3,1,3925
1160828,2,378,"2015-09-09 10:10:55",prac_test,1,1,1,2112
1160828,3,378,"2015-09-09 10:10:55",inst2,0,0,1,4830
1160828,4,378,"2015-09-09 10:10:55",testbig,2,2,1,5168
1160828,5,378,"2015-09-09 10:10:55",test,1,1,1,8830
1160828,6,378,"2015-09-09 10:10:55",test,4,3,0,6147
1160828,7,378,"2015-09-09 10:10:55",test,3,3,1,3260
1160828,8,378,"2015-09-09 10:10:55",test,1,1,1,3726
1160828,9,378,"2015-09-09 10:10:55",test,3,3,1,25319
1160828,10,378,"2015-09-09 10:10:55",test,3,4,0,5380
1160828,11,378,"2015-09-09 10:10:55",test,4,4,1,5755
1160828,12,378,"2015-09-09 10:10:55",test,4,2,0,9732
1160828,13,378,"2015-09-09 10:10:55",test,1,1,1,5927
1160828,14,378,"2015-09-09 10:10:55",test,5,5,1,6510
1160828,15,378,"2015-09-09 10:10:55",test,1,4,0,5724
1160828,16,378,"2015-09-09 10:10:55",test,2,2,1,11450
1160828,17,378,"2015-09-09 10:10:55",test,3,3,1,6847
1160828,18,378,"2015-09-09 10:10:55",test,2,4,0,4788
1160828,19,378,"2015-09-09 10:10:55",test,5,4,0,2590
1160828,20,378,"2015-09-09 10:10:55",test,4,4,1,2884
1160828,21,378,"2015-09-09 10:10:55",test,2,4,0,3129
1160828,22,378,"2015-09-09 10:10:55",test,1,4,0,6856
1160828,23,378,"2015-09-09 10:10:55",test,2,1,0,6784
1160847,1,169,"2015-09-09 10:14:43",prac_test,3,3,1,10956
1160847,2,169,"2015-09-09 10:14:43",prac_test,1,1,1,10755
1160847,3,169,"2015-09-09 10:14:43",inst2,0,0,1,1309
1160847,4,169,"2015-09-09 10:14:43",testbig,2,2,1,6182
1160847,5,169,"2015-09-09 10:14:43",test,1,1,1,11043
1160847,6,169,"2015-09-09 10:14:43",test,4,4,1,4382
1160847,7,169,"2015-09-09 10:14:43",test,3,3,1,4382
1160847,8,169,"2015-09-09 10:14:43",test,1,1,1,7718
1160847,9,169,"2015-09-09 10:14:43",test,3,3,1,5581
1160847,10,169,"2015-09-09 10:14:43",test,3,3,1,8781
1160847,11,169,"2015-09-09 10:14:43",test,4,5,0,17645
1160847,12,169,"2015-09-09 10:14:43",test,4,4,1,5911
1160847,13,169,"2015-09-09 10:14:43",test,1,1,1,6774
1160847,14,169,"2015-09-09 10:14:43",test,5,1,0,6366
1160847,15,169,"2015-09-09 10:14:43",test,1,4,0,6269
1160847,16,169,"2015-09-09 10:14:43",test,2,4,0,8610
1160875,1,187,"2015-09-09 10:33:02",prac_test,3,3,1,3998
1160875,2,187,"2015-09-09 10:33:02",prac_test,1,1,1,3296
1160875,3,187,"2015-09-09 10:33:02",inst2,0,0,1,1637
1160875,4,187,"2015-09-09 10:33:02",testbig,2,2,1,5761
1160875,5,187,"2015-09-09 10:33:02",test,1,1,1,6400
1160875,6,187,"2015-09-09 10:33:02",test,4,4,1,6618
1160875,7,187,"2015-09-09 10:33:02",test,3,3,1,5621
1160875,8,187,"2015-09-09 10:33:02",test,1,1,1,3156
1160875,9,187,"2015-09-09 10:33:02",test,3,3,1,18677
1160875,10,187,"2015-09-09 10:33:02",test,3,1,0,13065
1160875,11,187,"2015-09-09 10:33:02",test,4,5,0,30583
1160875,12,187,"2015-09-09 10:33:02",test,4,4,1,6853
1160875,13,187,"2015-09-09 10:33:02",test,1,1,1,3344
1160875,14,187,"2015-09-09 10:33:02",test,5,2,0,2999
1160875,15,187,"2015-09-09 10:33:02",test,1,1,1,2046
1160875,16,187,"2015-09-09 10:33:02",test,2,4,0,13305
1160875,17,187,"2015-09-09 10:33:02",test,3,2,0,6026
1160875,18,187,"2015-09-09 10:33:02",test,2,4,0,4602
1160873,1,384,"2015-09-09 10:32:17",prac_test,3,3,1,12219
1160873,2,384,"2015-09-09 10:32:17",prac_test,1,1,1,3392
1160873,3,384,"2015-09-09 10:32:17",inst2,0,0,1,2885
1160873,4,384,"2015-09-09 10:32:17",testbig,2,2,1,5683
1160873,5,384,"2015-09-09 10:32:17",test,1,1,1,10645
1160873,6,384,"2015-09-09 10:32:17",test,4,4,1,11789
1160873,7,384,"2015-09-09 10:32:17",test,3,3,1,7113
1160873,8,384,"2015-09-09 10:32:17",test,1,1,1,3761
1160873,9,384,"2015-09-09 10:32:17",test,3,3,1,7338
1160873,10,384,"2015-09-09 10:32:17",test,3,3,1,47540
1160873,11,384,"2015-09-09 10:32:17",test,4,5,0,7276
1160873,12,384,"2015-09-09 10:32:17",test,4,4,1,5690
1160873,13,384,"2015-09-09 10:32:17",test,1,1,1,5194
1160873,14,384,"2015-09-09 10:32:17",test,5,5,1,5297
1160873,15,384,"2015-09-09 10:32:17",test,1,1,1,15026
1160873,16,384,"2015-09-09 10:32:17",test,2,2,1,36960
1160873,17,384,"2015-09-09 10:32:17",test,3,3,1,5083
1160873,18,384,"2015-09-09 10:32:17",test,2,5,0,3532
1160873,19,384,"2015-09-09 10:32:17",test,5,5,1,9499
1160873,20,384,"2015-09-09 10:32:17",test,4,3,0,44209
1160873,21,384,"2015-09-09 10:32:17",test,2,2,1,10097
1160873,22,384,"2015-09-09 10:32:17",test,1,4,0,22379
1160873,23,384,"2015-09-09 10:32:17",test,2,1,0,19998
1160873,24,384,"2015-09-09 10:32:17",test,5,2,0,4538
1160878,1,301,"2015-09-09 10:35:28",prac_test,3,3,1,12965
1160878,2,301,"2015-09-09 10:35:28",prac_test,1,1,1,4410
1160878,3,301,"2015-09-09 10:35:28",inst2,0,0,1,2916
1160878,4,301,"2015-09-09 10:35:28",testbig,2,2,1,11867
1160878,5,301,"2015-09-09 10:35:28",test,1,1,1,19190
1160878,6,301,"2015-09-09 10:35:28",test,4,4,1,5838
1160878,7,301,"2015-09-09 10:35:28",test,3,3,1,5601
1160878,8,301,"2015-09-09 10:35:28",test,1,1,1,3201
1160878,9,301,"2015-09-09 10:35:28",test,3,3,1,14888
1160878,10,301,"2015-09-09 10:35:28",test,3,1,0,10457
1160878,11,301,"2015-09-09 10:35:28",test,4,5,0,21050
1160878,12,301,"2015-09-09 10:35:28",test,4,4,1,6590
1160878,13,301,"2015-09-09 10:35:28",test,1,1,1,9956
1160878,14,301,"2015-09-09 10:35:28",test,5,1,0,2548
1160878,15,301,"2015-09-09 10:35:28",test,1,1,1,4232
1160878,16,301,"2015-09-09 10:35:28",test,2,4,0,17504
1160878,17,301,"2015-09-09 10:35:28",test,3,3,1,19159
1160878,18,301,"2015-09-09 10:35:28",test,2,4,0,3061
1160878,19,301,"2015-09-09 10:35:28",test,5,1,0,3701
1160878,20,301,"2015-09-09 10:35:28",test,4,4,1,28724
1160878,21,301,"2015-09-09 10:35:28",test,2,4,0,13040
1160878,22,301,"2015-09-09 10:35:28",test,1,1,1,22760
1160878,23,301,"2015-09-09 10:35:28",test,2,1,0,3811
1160878,24,301,"2015-09-09 10:35:28",test,5,1,0,13124
1160878,25,301,"2015-09-09 10:35:28",testsmall,3,4,0,11894
1161948,1,135,"2015-09-10 09:13:35",prac_test,3,3,1,4217
1161948,2,135,"2015-09-10 09:13:35",prac_test,1,1,1,8290
1161948,3,135,"2015-09-10 09:13:35",inst2,0,0,1,1185
1161948,4,135,"2015-09-10 09:13:35",testbig,2,5,0,7928
1161948,5,135,"2015-09-10 09:13:35",test,1,1,1,15481
1161948,6,135,"2015-09-10 09:13:35",test,4,2,0,2407
1161948,7,135,"2015-09-10 09:13:35",test,3,1,0,13589
1161948,8,135,"2015-09-10 09:13:35",test,1,3,0,9170
1161969,1,223,"2015-09-10 09:32:20",prac_test,3,3,1,20218
1161969,2,223,"2015-09-10 09:32:20",prac_test,1,1,1,3655
1161969,3,223,"2015-09-10 09:32:20",inst2,0,0,1,1068
1161969,4,223,"2015-09-10 09:32:20",testbig,2,2,1,10178
1161969,5,223,"2015-09-10 09:32:20",test,1,1,1,27617
1161969,6,223,"2015-09-10 09:32:20",test,4,4,1,33166
1161969,7,223,"2015-09-10 09:32:20",test,3,3,1,5293
1161969,8,223,"2015-09-10 09:32:20",test,1,1,1,15947
1161969,9,223,"2015-09-10 09:32:20",test,3,1,0,7602
1161969,10,223,"2015-09-10 09:32:20",test,3,1,0,12439
1161969,11,223,"2015-09-10 09:32:20",test,4,4,1,20880
1161969,12,223,"2015-09-10 09:32:20",test,4,4,1,6821
1161969,13,223,"2015-09-10 09:32:20",test,1,1,1,4201
1161969,14,223,"2015-09-10 09:32:20",test,5,1,0,6915
1161969,15,223,"2015-09-10 09:32:20",test,1,4,0,17990
1161969,16,223,"2015-09-10 09:32:20",test,2,1,0,6821
1162090,1,590,"2015-09-10 10:08:31",prac_test,3,3,1,6187
1162090,2,590,"2015-09-10 10:08:31",prac_test,1,1,1,3192
1162090,3,590,"2015-09-10 10:08:31",inst2,0,0,1,3571
1162090,4,590,"2015-09-10 10:08:31",testbig,2,2,1,24704
1162090,5,590,"2015-09-10 10:08:31",test,1,3,0,16554
1162090,6,590,"2015-09-10 10:08:31",test,4,4,1,8976
1162090,7,590,"2015-09-10 10:08:31",test,3,3,1,4843
1162090,8,590,"2015-09-10 10:08:31",test,1,1,1,15105
1162090,9,590,"2015-09-10 10:08:31",test,3,3,1,11346
1162090,10,590,"2015-09-10 10:08:31",test,3,1,0,21399
1162090,11,590,"2015-09-10 10:08:31",test,4,5,0,17456
1162090,12,590,"2015-09-10 10:08:31",test,4,4,1,6494
1162090,13,590,"2015-09-10 10:08:31",test,1,1,1,25963
1162090,14,590,"2015-09-10 10:08:31",test,5,1,0,5007
1162090,15,590,"2015-09-10 10:08:31",test,1,2,0,8415
1162090,16,590,"2015-09-10 10:08:31",test,2,1,0,64936
1162287,1,259,"2015-09-10 11:45:08",prac_test,3,3,1,4394
1162287,2,259,"2015-09-10 11:45:08",prac_test,1,1,1,3053
1162287,3,259,"2015-09-10 11:45:08",inst2,0,0,1,5194
1162287,4,259,"2015-09-10 11:45:08",testbig,2,2,1,10832
1162287,5,259,"2015-09-10 11:45:08",test,1,1,1,13135
1162287,6,259,"2015-09-10 11:45:08",test,4,4,1,5267
1162287,7,259,"2015-09-10 11:45:08",test,3,3,1,5368
1162287,8,259,"2015-09-10 11:45:08",test,1,1,1,5427
1162287,9,259,"2015-09-10 11:45:08",test,3,3,1,42962
1162287,10,259,"2015-09-10 11:45:08",test,3,1,0,6724
1162287,11,259,"2015-09-10 11:45:08",test,4,5,0,38399
1162287,12,259,"2015-09-10 11:45:08",test,4,4,1,8513
1162287,13,259,"2015-09-10 11:45:08",test,1,1,1,8222
1162287,14,259,"2015-09-10 11:45:08",test,5,1,0,5807
1162287,15,259,"2015-09-10 11:45:08",test,1,1,1,9442
1162287,16,259,"2015-09-10 11:45:08",test,2,2,1,24643
1162287,17,259,"2015-09-10 11:45:08",test,3,5,0,7953
1162287,18,259,"2015-09-10 11:45:08",test,2,5,0,17067
1162287,19,259,"2015-09-10 11:45:08",test,5,1,0,15148
1162416,1,322,"2015-09-10 13:22:57",prac_test,3,3,1,86588
1162416,2,322,"2015-09-10 13:22:57",prac_test,1,1,1,27029
1162416,3,322,"2015-09-10 13:22:57",inst2,0,0,1,24733
1162416,4,322,"2015-09-10 13:22:57",testbig,2,2,1,14249
1162416,5,322,"2015-09-10 13:22:57",test,1,1,1,13235
1162416,6,322,"2015-09-10 13:22:57",test,4,4,1,17532
1162416,7,322,"2015-09-10 13:22:57",test,3,3,1,11683
1162416,8,322,"2015-09-10 13:22:57",test,1,1,1,9743
1162416,9,322,"2015-09-10 13:22:57",test,3,3,1,7487
1162416,10,322,"2015-09-10 13:22:57",test,3,3,1,22983
1162416,11,322,"2015-09-10 13:22:57",test,4,5,0,21725
1162416,12,322,"2015-09-10 13:22:57",test,4,4,1,18278
1162416,13,322,"2015-09-10 13:22:57",test,1,3,0,9060
1162416,14,322,"2015-09-10 13:22:57",test,5,1,0,9928
1162416,15,322,"2015-09-10 13:22:57",test,1,4,0,7290
1162449,1,502,"2015-09-10 14:04:33",prac_test,3,3,1,356642
1162449,2,502,"2015-09-10 14:04:33",prac_test,1,1,1,4031
1162449,3,502,"2015-09-10 14:04:33",inst2,0,0,1,933
1162449,4,502,"2015-09-10 14:04:33",testbig,2,1,0,4745
1162449,5,502,"2015-09-10 14:04:33",test,1,1,1,7843
1162449,6,502,"2015-09-10 14:04:33",test,4,2,0,4833
1162449,7,502,"2015-09-10 14:04:33",test,3,3,1,4757
1162449,8,502,"2015-09-10 14:04:33",test,1,1,1,5318
1162449,9,502,"2015-09-10 14:04:33",test,3,3,1,4958
1162449,10,502,"2015-09-10 14:04:33",test,3,1,0,7672
1162449,11,502,"2015-09-10 14:04:33",test,4,5,0,7672
1162449,12,502,"2015-09-10 14:04:33",test,4,4,1,5948
1162449,13,502,"2015-09-10 14:04:33",test,1,3,0,3103
1162449,14,502,"2015-09-10 14:04:33",test,5,1,0,3942
1162449,15,502,"2015-09-10 14:04:33",test,1,1,1,4773
1162449,16,502,"2015-09-10 14:04:33",test,2,4,0,17858
1162449,17,502,"2015-09-10 14:04:33",test,3,3,1,5933
1162449,18,502,"2015-09-10 14:04:33",test,2,5,0,6979
1162449,19,502,"2015-09-10 14:04:33",test,5,1,0,4694
1162449,20,502,"2015-09-10 14:04:33",test,4,2,0,13378
1162455,1,158,"2015-09-10 14:13:23",prac_test,3,3,1,20344
1162455,2,158,"2015-09-10 14:13:23",prac_test,1,1,1,2720
1162455,3,158,"2015-09-10 14:13:23",inst2,0,0,1,1583
1162455,4,158,"2015-09-10 14:13:23",testbig,2,2,1,5995
1162455,5,158,"2015-09-10 14:13:23",test,1,1,1,12622
1162455,6,158,"2015-09-10 14:13:23",test,4,2,0,4276
1162455,7,158,"2015-09-10 14:13:23",test,3,3,1,4443
1162455,8,158,"2015-09-10 14:13:23",test,1,3,0,3376
1162455,9,158,"2015-09-10 14:13:23",test,3,2,0,3621
1162455,10,158,"2015-09-10 14:13:23",test,3,3,1,1009
1162455,11,158,"2015-09-10 14:13:23",test,4,2,0,777
1162455,12,158,"2015-09-10 14:13:23",test,4,4,1,717
1162455,13,158,"2015-09-10 14:13:23",test,1,1,1,17354
1162455,14,158,"2015-09-10 14:13:23",test,5,5,1,12835
1162455,15,158,"2015-09-10 14:13:23",test,1,5,0,4166
1162455,16,158,"2015-09-10 14:13:23",test,2,4,0,10100
1162455,17,158,"2015-09-10 14:13:23",test,3,5,0,12783
1162714,1,488,"2015-09-10 19:08:28",prac_test,3,3,1,17209
1162714,2,488,"2015-09-10 19:08:28",prac_test,1,1,1,11331
1162714,3,488,"2015-09-10 19:08:28",inst2,0,0,1,336
1162714,4,488,"2015-09-10 19:08:28",testbig,2,2,1,12643
1162714,5,488,"2015-09-10 19:08:28",test,1,1,1,12162
1162714,6,488,"2015-09-10 19:08:28",test,4,4,1,6915
1162714,7,488,"2015-09-10 19:08:28",test,3,3,1,5432
1162714,8,488,"2015-09-10 19:08:28",test,1,1,1,4179
1162714,9,488,"2015-09-10 19:08:28",test,3,3,1,57005
1162714,10,488,"2015-09-10 19:08:28",test,3,1,0,11390
1162714,11,488,"2015-09-10 19:08:28",test,4,5,0,10523
1162714,12,488,"2015-09-10 19:08:28",test,4,4,1,10760
1162714,13,488,"2015-09-10 19:08:28",test,1,1,1,10433
1162714,14,488,"2015-09-10 19:08:28",test,5,5,1,14626
1162714,15,488,"2015-09-10 19:08:28",test,1,3,0,14131
1162714,16,488,"2015-09-10 19:08:28",test,2,1,0,13159
1162714,17,488,"2015-09-10 19:08:28",test,3,3,1,10838
1162714,18,488,"2015-09-10 19:08:28",test,2,2,1,7249
1162714,19,488,"2015-09-10 19:08:28",test,5,5,1,13360
1162714,20,488,"2015-09-10 19:08:28",test,4,5,0,12461
1162714,21,488,"2015-09-10 19:08:28",test,2,2,1,10167
1162714,22,488,"2015-09-10 19:08:28",test,1,1,1,20394
1162714,23,488,"2015-09-10 19:08:28",test,2,1,0,16997
1162714,24,488,"2015-09-10 19:08:28",test,5,5,1,19246
1162714,25,488,"2015-09-10 19:08:28",testsmall,3,4,0,33696
1162714,26,488,"2015-09-10 19:08:28",test,1,1,1,25258
1162714,27,488,"2015-09-10 19:08:28",testbig,3,3,1,22823
1162714,28,488,"2015-09-10 19:08:28",test,4,3,0,16301
1162714,29,488,"2015-09-10 19:08:28",test,3,5,0,10152
1162714,30,488,"2015-09-10 19:08:28",testbig,5,2,0,18606
1163225,1,325,"2015-09-11 09:27:28",prac_test,3,3,1,4803
1163225,2,325,"2015-09-11 09:27:28",prac_test,1,1,1,6332
1163225,3,325,"2015-09-11 09:27:28",inst2,0,0,1,3008
1163225,4,325,"2015-09-11 09:27:28",testbig,2,2,1,9070
1163225,5,325,"2015-09-11 09:27:28",test,1,1,1,10505
1163225,6,325,"2015-09-11 09:27:28",test,4,4,1,4545
1163225,7,325,"2015-09-11 09:27:28",test,3,3,1,9525
1163225,8,325,"2015-09-11 09:27:28",test,1,1,1,3499
1163225,9,325,"2015-09-11 09:27:28",test,3,3,1,4063
1163225,10,325,"2015-09-11 09:27:28",test,3,3,1,10207
1163225,11,325,"2015-09-11 09:27:28",test,4,5,0,11842
1163225,12,325,"2015-09-11 09:27:28",test,4,4,1,4466
1163225,13,325,"2015-09-11 09:27:28",test,1,1,1,5477
1163225,14,325,"2015-09-11 09:27:28",test,5,5,1,7534
1163225,15,325,"2015-09-11 09:27:28",test,1,4,0,8756
1163225,16,325,"2015-09-11 09:27:28",test,2,5,0,12360
1163225,17,325,"2015-09-11 09:27:28",test,3,3,1,7111
1163225,18,325,"2015-09-11 09:27:28",test,2,2,1,15526
1163225,19,325,"2015-09-11 09:27:28",test,5,5,1,8408
1163225,20,325,"2015-09-11 09:27:28",test,4,5,0,6738
1163225,21,325,"2015-09-11 09:27:28",test,2,5,0,5571
1163225,22,325,"2015-09-11 09:27:28",test,1,1,1,14167
1163225,23,325,"2015-09-11 09:27:28",test,2,5,0,3873
1163225,24,325,"2015-09-11 09:27:28",test,5,5,1,10051
1163225,25,325,"2015-09-11 09:27:28",testsmall,3,1,0,22982
1163225,26,325,"2015-09-11 09:27:28",test,1,1,1,4187
1163225,27,325,"2015-09-11 09:27:28",testbig,3,5,0,10795
1163225,28,325,"2015-09-11 09:27:28",test,4,4,1,9760
1163225,29,325,"2015-09-11 09:27:28",test,3,5,0,15401
1163225,30,325,"2015-09-11 09:27:28",testbig,5,4,0,10078
1163225,31,325,"2015-09-11 09:27:28",testbig,4,1,0,9254
1163228,1,368,"2015-09-11 09:28:12",prac_test,3,3,1,72567
1163228,2,368,"2015-09-11 09:28:12",prac_test,1,1,1,8945
1163228,3,368,"2015-09-11 09:28:12",inst2,0,0,1,5919
1163228,4,368,"2015-09-11 09:28:12",testbig,2,2,1,37977
1163228,5,368,"2015-09-11 09:28:12",test,1,1,1,10811
1163228,6,368,"2015-09-11 09:28:12",test,4,4,1,9886
1163228,7,368,"2015-09-11 09:28:12",test,3,3,1,5004
1163228,8,368,"2015-09-11 09:28:12",test,1,1,1,5835
1163228,9,368,"2015-09-11 09:28:12",test,3,3,1,15911
1163228,10,368,"2015-09-11 09:28:12",test,3,3,1,14896
1163228,11,368,"2015-09-11 09:28:12",test,4,5,0,7143
1163228,12,368,"2015-09-11 09:28:12",test,4,4,1,8437
1163228,13,368,"2015-09-11 09:28:12",test,1,3,0,8532
1163228,14,368,"2015-09-11 09:28:12",test,5,5,1,10700
1163228,15,368,"2015-09-11 09:28:12",test,1,4,0,21713
1163228,16,368,"2015-09-11 09:28:12",test,2,1,0,15349
1163228,17,368,"2015-09-11 09:28:12",test,3,3,1,7188
1163228,18,368,"2015-09-11 09:28:12",test,2,3,0,14804
1163228,19,368,"2015-09-11 09:28:12",test,5,5,1,15957
1163228,20,368,"2015-09-11 09:28:12",test,4,1,0,10746
1163228,21,368,"2015-09-11 09:28:12",test,2,3,0,4726
1163228,22,368,"2015-09-11 09:28:12",test,1,1,1,13466
1163228,23,368,"2015-09-11 09:28:12",test,2,1,0,8191
1163228,24,368,"2015-09-11 09:28:12",test,5,1,0,2137
1163228,25,368,"2015-09-11 09:28:12",testsmall,3,1,0,4476
1163224,1,430,"2015-09-11 09:27:13",prac_test,3,3,1,115589
1163224,2,430,"2015-09-11 09:27:13",prac_test,1,1,1,6901
1163224,3,430,"2015-09-11 09:27:13",inst2,0,0,1,1615
1163224,4,430,"2015-09-11 09:27:13",testbig,2,2,1,8101
1163224,5,430,"2015-09-11 09:27:13",test,1,2,0,27781
1163224,6,430,"2015-09-11 09:27:13",test,4,1,0,10435
1163224,7,430,"2015-09-11 09:27:13",test,3,3,1,12836
1163224,8,430,"2015-09-11 09:27:13",test,1,1,1,8939
1163224,9,430,"2015-09-11 09:27:13",test,3,3,1,12822
1163224,10,430,"2015-09-11 09:27:13",test,3,1,0,10607
1163224,11,430,"2015-09-11 09:27:13",test,4,4,1,26253
1163224,12,430,"2015-09-11 09:27:13",test,4,4,1,8157
1163224,13,430,"2015-09-11 09:27:13",test,1,1,1,8118
1163224,14,430,"2015-09-11 09:27:13",test,5,1,0,12619
1163224,15,430,"2015-09-11 09:27:13",test,1,4,0,11282
1163224,16,430,"2015-09-11 09:27:13",test,2,2,1,21995
1163224,17,430,"2015-09-11 09:27:13",test,3,3,1,20170
1163224,18,430,"2015-09-11 09:27:13",test,2,5,0,12244
1163224,19,430,"2015-09-11 09:27:13",test,5,4,0,8719
1163224,20,430,"2015-09-11 09:27:13",test,4,4,1,8503
1163224,21,430,"2015-09-11 09:27:13",test,2,2,1,10434
1163224,22,430,"2015-09-11 09:27:13",test,1,3,0,4648
1163224,23,430,"2015-09-11 09:27:13",test,2,2,1,5240
1163224,24,430,"2015-09-11 09:27:13",test,5,1,0,3623
1163224,25,430,"2015-09-11 09:27:13",testsmall,3,5,0,6915
1163224,26,430,"2015-09-11 09:27:13",test,1,1,1,5588
1163224,27,430,"2015-09-11 09:27:13",testbig,3,5,0,9115
1163224,28,430,"2015-09-11 09:27:13",test,4,3,0,2081
1163224,29,430,"2015-09-11 09:27:13",test,3,5,0,2063
1163308,1,169,"2015-09-11 10:33:19",prac_test,3,3,1,51239
1163308,2,169,"2015-09-11 10:33:19",prac_test,1,1,1,39633
1163308,3,169,"2015-09-11 10:33:19",inst2,0,0,1,833
1163308,4,169,"2015-09-11 10:33:19",testbig,2,2,1,11056
1163308,5,169,"2015-09-11 10:33:19",test,1,4,0,19841
1163308,6,169,"2015-09-11 10:33:19",test,4,1,0,13915
1163308,7,169,"2015-09-11 10:33:19",test,3,2,0,18426
1497463,1,39,"2016-06-06 08:26:12",prac_test,3,3,1,1831
1497517,1,1294,"2016-06-06 09:19:55",prac_test,3,3,1,18080
1497517,2,1294,"2016-06-06 09:19:55",prac_test,1,1,1,18599
1497517,3,1294,"2016-06-06 09:19:55",inst2,0,0,1,965353
1497556,1,1155,"2016-06-06 10:01:15",prac_test,3,3,1,161824
1497611,1,203,"2016-06-06 10:44:05",prac_test,3,3,1,22982
1497611,2,203,"2016-06-06 10:44:05",prac_test,1,1,1,3860
1497611,3,203,"2016-06-06 10:44:05",inst2,0,0,1,3619
1497611,4,203,"2016-06-06 10:44:05",testbig,2,2,1,3267
1497611,5,203,"2016-06-06 10:44:05",test,1,1,1,9700
1497611,6,203,"2016-06-06 10:44:05",test,4,4,1,9783
1497611,7,203,"2016-06-06 10:44:05",test,3,3,1,5106
1497611,8,203,"2016-06-06 10:44:05",test,1,1,1,7563
1497611,9,203,"2016-06-06 10:44:05",test,3,3,1,16724
1497611,10,203,"2016-06-06 10:44:05",test,3,1,0,11751
1497611,11,203,"2016-06-06 10:44:05",test,4,5,0,7328
1497611,12,203,"2016-06-06 10:44:05",test,4,4,1,27881
1497611,13,203,"2016-06-06 10:44:05",test,1,1,1,3816
1497611,14,203,"2016-06-06 10:44:05",test,5,1,0,3015
1497611,15,203,"2016-06-06 10:44:05",test,1,3,0,12078
1497611,16,203,"2016-06-06 10:44:05",test,2,1,0,37119
1497607,1,1378,"2016-06-06 10:34:09",prac_test,3,3,1,9438
1497607,2,1378,"2016-06-06 10:34:09",prac_test,1,1,1,40378
1497653,1,179,"2016-06-06 11:17:02",prac_test,3,3,1,8994
1497653,2,179,"2016-06-06 11:17:02",prac_test,1,1,1,12240
1497653,3,179,"2016-06-06 11:17:02",inst2,0,0,1,1124
1497653,4,179,"2016-06-06 11:17:02",testbig,2,2,1,21646
1497653,5,179,"2016-06-06 11:17:02",test,1,1,1,24902
1497653,6,179,"2016-06-06 11:17:02",test,4,2,0,3662
1497653,7,179,"2016-06-06 11:17:02",test,3,3,1,3072
1497653,8,179,"2016-06-06 11:17:02",test,1,1,1,4335
1497653,9,179,"2016-06-06 11:17:02",test,3,2,0,11854
1497653,10,179,"2016-06-06 11:17:02",test,3,3,1,5365
1497653,11,179,"2016-06-06 11:17:02",test,4,5,0,22428
1497653,12,179,"2016-06-06 11:17:02",test,4,4,1,5277
1497653,13,179,"2016-06-06 11:17:02",test,1,1,1,3186
1497653,14,179,"2016-06-06 11:17:02",test,5,1,0,11169
1497653,15,179,"2016-06-06 11:17:02",test,1,4,0,6876
1497653,16,179,"2016-06-06 11:17:02",test,2,4,0,16039
1497658,1,156,"2016-06-06 11:21:33",prac_test,3,3,1,28922
1497658,2,156,"2016-06-06 11:21:33",prac_test,1,1,1,5217
1497658,3,156,"2016-06-06 11:21:33",inst2,0,0,1,13504
1497658,4,156,"2016-06-06 11:21:33",testbig,2,2,1,12767
1497658,5,156,"2016-06-06 11:21:33",test,1,1,1,7630
1497658,6,156,"2016-06-06 11:21:33",test,4,4,1,6163
1497658,7,156,"2016-06-06 11:21:33",test,3,3,1,4643
1497658,8,156,"2016-06-06 11:21:33",test,1,1,1,4774
1497658,9,156,"2016-06-06 11:21:33",test,3,4,0,19593
1497658,10,156,"2016-06-06 11:21:33",test,3,1,0,8402
1497658,11,156,"2016-06-06 11:21:33",test,4,5,0,14336
1497654,1,1346,"2016-06-06 11:18:37",prac_test,3,3,1,16827
1497654,2,1346,"2016-06-06 11:18:37",prac_test,1,1,1,13623
1497654,3,1346,"2016-06-06 11:18:37",inst2,0,0,1,1660
1497654,4,1346,"2016-06-06 11:18:37",testbig,2,2,1,41055
1497654,5,1346,"2016-06-06 11:18:37",test,1,1,1,29061
1497654,6,1346,"2016-06-06 11:18:37",test,4,3,0,3338
1497654,7,1346,"2016-06-06 11:18:37",test,3,3,1,89161
1497654,8,1346,"2016-06-06 11:18:37",test,1,1,1,184536
1497654,9,1346,"2016-06-06 11:18:37",test,3,3,1,86663
1497654,10,1346,"2016-06-06 11:18:37",test,3,3,1,84121
1497654,11,1346,"2016-06-06 11:18:37",test,4,4,1,97217
1497654,12,1346,"2016-06-06 11:18:37",test,4,4,1,60352
1497654,13,1346,"2016-06-06 11:18:37",test,1,1,1,41549
1497654,14,1346,"2016-06-06 11:18:37",test,5,5,1,20630
1497654,15,1346,"2016-06-06 11:18:37",test,1,5,0,47072
1497654,16,1346,"2016-06-06 11:18:37",test,2,2,1,14461
1497654,17,1346,"2016-06-06 11:18:37",test,3,3,1,35538
1497654,18,1346,"2016-06-06 11:18:37",test,2,3,0,62619
1497654,19,1346,"2016-06-06 11:18:37",test,5,5,1,31579
1497654,20,1346,"2016-06-06 11:18:37",test,4,2,0,44372
1497654,21,1346,"2016-06-06 11:18:37",test,2,5,0,25885
1497654,22,1346,"2016-06-06 11:18:37",test,1,1,1,28197
1497654,23,1346,"2016-06-06 11:18:37",test,2,4,0,38048
1497654,24,1346,"2016-06-06 11:18:37",test,5,5,1,18319
1497654,25,1346,"2016-06-06 11:18:37",testsmall,3,1,0,21860
1497654,26,1346,"2016-06-06 11:18:37",test,1,1,1,8696
1497654,27,1346,"2016-06-06 11:18:37",testbig,3,1,0,23856
1497654,28,1346,"2016-06-06 11:18:37",test,4,5,0,19410
1497654,29,1346,"2016-06-06 11:18:37",test,3,3,1,30717
1497654,30,1346,"2016-06-06 11:18:37",testbig,5,3,0,50860
1497654,31,1346,"2016-06-06 11:18:37",testbig,4,1,0,30508
1497654,32,1346,"2016-06-06 11:18:37",test,5,1,0,13463
1497753,1,833,"2016-06-06 13:30:36",prac_test,3,3,1,13755
1497753,2,833,"2016-06-06 13:30:36",prac_test,1,1,1,6457
1497753,3,833,"2016-06-06 13:30:36",inst2,0,0,1,16730
1497753,4,833,"2016-06-06 13:30:36",testbig,2,2,1,1892
1497753,5,833,"2016-06-06 13:30:36",test,1,1,1,4003
1497753,6,833,"2016-06-06 13:30:36",test,4,4,1,2905
1497753,7,833,"2016-06-06 13:30:36",test,3,3,1,3923
1497753,8,833,"2016-06-06 13:30:36",test,1,1,1,1985
1497753,9,833,"2016-06-06 13:30:36",test,3,3,1,1861
1497753,10,833,"2016-06-06 13:30:36",test,3,3,1,6278
1497753,11,833,"2016-06-06 13:30:36",test,4,4,1,9947
1497753,12,833,"2016-06-06 13:30:36",test,4,4,1,7495
1497753,13,833,"2016-06-06 13:30:36",test,1,1,1,3109
1497753,14,833,"2016-06-06 13:30:36",test,5,5,1,3515
1497753,15,833,"2016-06-06 13:30:36",test,1,1,1,5875
1497753,16,833,"2016-06-06 13:30:36",test,2,2,1,12218
1497753,17,833,"2016-06-06 13:30:36",test,3,3,1,3624
1497753,18,833,"2016-06-06 13:30:36",test,2,2,1,12084
1497753,19,833,"2016-06-06 13:30:36",test,5,5,1,4471
1497753,20,833,"2016-06-06 13:30:36",test,4,4,1,6247
1497753,21,833,"2016-06-06 13:30:36",test,2,2,1,4528
1497753,22,833,"2016-06-06 13:30:36",test,1,1,1,17258
1497753,23,833,"2016-06-06 13:30:36",test,2,2,1,7994
1497753,24,833,"2016-06-06 13:30:36",test,5,5,1,11908
1497753,25,833,"2016-06-06 13:30:36",testsmall,3,3,1,26763
1497753,26,833,"2016-06-06 13:30:36",test,1,2,0,2487
1497753,27,833,"2016-06-06 13:30:36",testbig,3,3,1,8818
1497753,28,833,"2016-06-06 13:30:36",test,4,4,1,14594
1497753,29,833,"2016-06-06 13:30:36",test,3,3,1,18662
1497753,30,833,"2016-06-06 13:30:36",testbig,5,5,1,24585
1497753,31,833,"2016-06-06 13:30:36",testbig,4,4,1,38653
1497753,32,833,"2016-06-06 13:30:36",test,5,5,1,11938
1497753,33,833,"2016-06-06 13:30:36",test,4,4,1,24426
1497753,34,833,"2016-06-06 13:30:36",test,1,1,1,15331
1497753,35,833,"2016-06-06 13:30:36",testsmall,5,3,0,70100
1497753,36,833,"2016-06-06 13:30:36",test,3,1,0,37460
1497753,37,833,"2016-06-06 13:30:36",test,3,1,0,78472
1498515,1,157,"2016-06-07 09:59:20",prac_test,3,3,1,46514
1498515,2,157,"2016-06-07 09:59:20",prac_test,1,1,1,2392
1498515,3,157,"2016-06-07 09:59:20",inst2,0,0,1,3949
1498515,4,157,"2016-06-07 09:59:20",testbig,2,2,1,12048
1498515,5,157,"2016-06-07 09:59:20",test,1,1,1,28206
1498515,6,157,"2016-06-07 09:59:20",test,4,4,1,6437
1498515,7,157,"2016-06-07 09:59:20",test,3,3,1,4655
1498515,8,157,"2016-06-07 09:59:20",test,1,4,0,7222
1498515,9,157,"2016-06-07 09:59:20",test,3,4,0,6931
1498515,10,157,"2016-06-07 09:59:20",test,3,1,0,7602
1498516,1,286,"2016-06-07 09:59:54",prac_test,3,3,1,6631
1498516,2,286,"2016-06-07 09:59:54",prac_test,1,1,1,5009
1498516,3,286,"2016-06-07 09:59:54",inst2,0,0,1,1070
1498516,4,286,"2016-06-07 09:59:54",testbig,2,2,1,6618
1498516,5,286,"2016-06-07 09:59:54",test,1,3,0,22810
1498516,6,286,"2016-06-07 09:59:54",test,4,4,1,17282
1498516,7,286,"2016-06-07 09:59:54",test,3,3,1,9931
1498516,8,286,"2016-06-07 09:59:54",test,1,1,1,3854
1498516,9,286,"2016-06-07 09:59:54",test,3,3,1,9781
1498516,10,286,"2016-06-07 09:59:54",test,3,3,1,24679
1498516,11,286,"2016-06-07 09:59:54",test,4,3,0,4084
1498516,12,286,"2016-06-07 09:59:54",test,4,4,1,4044
1498516,13,286,"2016-06-07 09:59:54",test,1,3,0,7493
1498516,14,286,"2016-06-07 09:59:54",test,5,1,0,5345
1498516,15,286,"2016-06-07 09:59:54",test,1,1,1,27637
1498516,16,286,"2016-06-07 09:59:54",test,2,4,0,31868
1498516,17,286,"2016-06-07 09:59:54",test,3,3,1,5371
1498516,18,286,"2016-06-07 09:59:54",test,2,4,0,23639
1498516,19,286,"2016-06-07 09:59:54",test,5,2,0,22422
1498516,20,286,"2016-06-07 09:59:54",test,4,3,0,8546
1498468,1,1218,"2016-06-07 09:48:20",prac_test,3,3,1,310146
1498468,2,1218,"2016-06-07 09:48:20",prac_test,1,1,1,4232
1498468,3,1218,"2016-06-07 09:48:20",inst2,0,0,1,4513
1498468,4,1218,"2016-06-07 09:48:20",testbig,2,2,1,7711
1498468,5,1218,"2016-06-07 09:48:20",test,1,1,1,17071
1498468,6,1218,"2016-06-07 09:48:20",test,4,4,1,2438
1498468,7,1218,"2016-06-07 09:48:20",test,3,3,1,12860
1498468,8,1218,"2016-06-07 09:48:20",test,1,1,1,2373
1498468,9,1218,"2016-06-07 09:48:20",test,3,3,1,3514
1498468,10,1218,"2016-06-07 09:48:20",test,3,3,1,7134
1498468,11,1218,"2016-06-07 09:48:20",test,4,4,1,3530
1498468,12,1218,"2016-06-07 09:48:20",test,4,4,1,3339
1498468,13,1218,"2016-06-07 09:48:20",test,1,1,1,1908
1498468,14,1218,"2016-06-07 09:48:20",test,5,5,1,3093
1498468,15,1218,"2016-06-07 09:48:20",test,1,1,1,7446
1498468,16,1218,"2016-06-07 09:48:20",test,2,2,1,4373
1498468,17,1218,"2016-06-07 09:48:20",test,3,3,1,4167
1498468,18,1218,"2016-06-07 09:48:20",test,2,2,1,3854
1498468,19,1218,"2016-06-07 09:48:20",test,5,5,1,8525
1498468,20,1218,"2016-06-07 09:48:20",test,4,4,1,4404
1498468,21,1218,"2016-06-07 09:48:20",test,2,1,0,25913
1498468,22,1218,"2016-06-07 09:48:20",test,1,1,1,9770
1498468,23,1218,"2016-06-07 09:48:20",test,2,2,1,14740
1498468,24,1218,"2016-06-07 09:48:20",test,5,5,1,10553
1498468,25,1218,"2016-06-07 09:48:20",testsmall,3,3,1,11314
1498468,26,1218,"2016-06-07 09:48:20",test,1,1,1,6381
1498468,27,1218,"2016-06-07 09:48:20",testbig,3,3,1,8273
1498468,28,1218,"2016-06-07 09:48:20",test,4,4,1,3904
1498468,29,1218,"2016-06-07 09:48:20",test,3,3,1,7726
1498468,30,1218,"2016-06-07 09:48:20",testbig,5,5,1,3857
1498468,31,1218,"2016-06-07 09:48:20",testbig,4,4,1,13000
1498468,32,1218,"2016-06-07 09:48:20",test,5,5,1,8802
1498468,33,1218,"2016-06-07 09:48:20",test,4,4,1,26041
1498468,34,1218,"2016-06-07 09:48:20",test,1,1,1,18756
1498468,35,1218,"2016-06-07 09:48:20",testsmall,5,4,0,244646
1498468,36,1218,"2016-06-07 09:48:20",test,3,3,1,33685
1498468,37,1218,"2016-06-07 09:48:20",test,3,3,1,39141
1498468,38,1218,"2016-06-07 09:48:20",testbig,1,5,0,90357
